File: 学部3年/前期/学生実験/B2/XRD/Fe2O3_calc.txt
Fe2O3	100.001
2.09	0	20
2.19	0	20
2.29	0	20
2.39	0	20
2.49	0	20
2.59	0	20
2.69	0	20
2.79	0	20
2.89	0	20
2.99	0	20
3.09	0	20
3.19	0	20
3.29	0	20
3.39	0	20
3.49	0	20
3.59	0	20
3.69	0	20
3.79	0	20
3.89	0	20
3.99	0	20
4.09	0	20
4.19	0	20
4.29	0	20
4.39	0	20
4.49	0	20
4.59	0	20
4.69	0	20
4.79	0	20
4.89	0	20
4.99	0	20
5.09	0	20
5.19	0	20
5.29	0	20
5.39	0	20
5.49	0	20
5.59	0	20
5.69	0	20
5.79	0	20
5.89	0	20
5.99	0	20
6.09	0	20
6.19	0	20
6.29	0	20
6.39	0	20
6.49	0	20
6.59	0	20
6.69	0	20
6.79	0	20
6.89	0	20
6.99	0	20
7.09	0	20
7.19	0	20
7.29	0	20
7.39	0	20
7.49	0	20
7.59	0	20
7.69	0	20
7.79	0	20
7.89	0	20
7.99	0	20
8.09	0	20
8.19	0	20
8.29	0	20
8.39	0	20
8.49	0	20
8.59	0	20
8.69	0	20
8.79	0	20
8.89	0	20
8.99	0	20
9.09	0	20
9.19	0	20
9.29	0	20
9.39	0	20
9.49	0	20
9.59	0	20
9.69	0	20
9.79	0	20
9.89	0	20
9.99	0	20
10.09	0	20
10.19	0	20
10.29	0	20
10.39	0	20
10.49	0	20
10.59	0	20
10.69	0	20
10.79	0	20
10.89	0	20
10.99	0	20
11.09	0	20
11.19	0	20
11.29	0	20
11.39	0	20
11.49	0	20
11.59	0	20
11.69	0	20
11.79	0	20
11.89	0	20
11.99	0	20
12.09	0	20
12.19	0	20
12.29	0	20
12.39	0	20
12.49	0	20
12.59	0	20
12.69	0	20
12.79	0	20
12.89	0	20
12.99	0	20
13.09	0	20
13.19	0	20
13.29	0	20
13.39	0	20
13.49	0	20
13.59	0	20
13.69	0	20
13.79	0	20
13.89	0	20
13.99	0	20
14.09	0	20
14.19	0	20
14.29	0	20
14.39	0	20
14.49	0	20
14.59	0	20
14.69	0	20
14.79	0	20
14.89	0	20
14.99	0	20
15.09	0	20
15.19	0	20
15.29	0	20
15.39	0	20
15.49	0	20
15.59	0	20
15.69	0	20
15.79	0	20
15.89	0	20
15.99	0	20
16.09	0	20
16.19	0	20
16.29	0	20
16.39	0	20
16.49	0	20
16.59	0	20
16.69	0	20
16.79	0	20
16.89	0	20
16.99	0	20
17.09	0	20
17.19	0	20
17.29	0	20
17.39	0	20
17.49	0	20
17.59	0	20
17.69	0	20
17.79	0	20
17.89	0	20
17.99	0	20
18.09	0	20
18.19	0	20
18.29	0	20
18.39	0	20
18.49	0	20
18.59	0	20
18.69	0	20
18.79	0	20
18.89	0	20
18.99	0	20
19.09	0	20
19.19	0	20
19.29	0	20
19.39	0	20
19.49	0	20
19.59	0	20
19.69	0	20
19.79	0	20
19.89	0	20
19.99	0	20
20.09	0	20
20.19	0	20
20.29	0	20
20.39	0	20
20.49	0	20
20.59	0	20
20.69	0	20
20.79	0	20
20.89	0	20
20.99	0	20
21.09	0	20
21.19	0	20
21.29	0	20
21.39	0	20
21.49	0	20
21.59	0	20
21.69	0	20
21.79	0	20
21.89	0	20
21.99	0	20
22.09	0	20
22.19	0	20
22.29	0	20
22.39	0	20
22.49	0	20
22.59	0	20
22.69	0	20
22.79	0	20
22.89	0	20
22.99	0	20
23.09	0	20
23.19	0	20
23.29	0	20
23.39	0.122	20.122
23.49	0.245	20.245
23.59	0.375	20.375
23.69	0.644	20.644
23.79	1.355	21.355
23.89	4.81	24.81
23.99	45.671	65.671
24.09	9.215	29.215
24.19	0.902	20.902
24.29	0.358	20.358
24.39	0.192	20.192
24.49	0	20
24.59	0	20
24.69	0	20
24.79	0	20
24.89	0	20
24.99	0	20
25.09	0	20
25.19	0	20
25.29	0	20
25.39	0	20
25.49	0	20
25.59	0	20
25.69	0	20
25.79	0	20
25.89	0	20
25.99	0	20
26.09	0	20
26.19	0	20
26.29	0	20
26.39	0	20
26.49	0	20
26.59	0	20
26.69	0	20
26.79	0	20
26.89	0	20
26.99	0	20
27.09	0	20
27.19	0	20
27.29	0	20
27.39	0	20
27.49	0	20
27.59	0	20
27.69	0	20
27.79	0	20
27.89	0	20
27.99	0	20
28.09	0	20
28.19	0	20
28.29	0	20
28.39	0	20
28.49	0	20
28.59	0	20
28.69	0	20
28.79	0	20
28.89	0	20
28.99	0	20
29.09	0	20
29.19	0	20
29.29	0	20
29.39	0	20
29.49	0	20
29.59	0	20
29.69	0	20
29.79	0	20
29.89	0	20
29.99	0	20
30.09	0	20
30.19	0	20
30.29	0	20
30.39	0	20
30.49	0	20
30.59	0	20
30.69	0	20
30.79	0	20
30.89	0	20
30.99	0	20
31.09	0	20
31.19	0	20
31.29	0	20
31.39	0	20
31.49	0	20
31.59	0	20
31.69	0	20
31.79	0	20
31.89	0	20
31.99	0	20
32.09	0	20
32.19	0	20
32.29	0	20
32.39	0.329	20.329
32.49	0.669	20.669
32.59	1.098	21.098
32.69	2.124	22.124
32.79	5.76	25.76
32.89	59.338	79.338
32.99	53.943	73.943
33.09	6.236	26.236
33.19	1.655	21.655
33.29	0.789	20.789
33.39	0.463	20.463
33.49	0.124	20.124
33.59	0	20
33.69	0	20
33.79	0	20
33.89	0	20
33.99	0	20
34.09	0	20
34.19	0	20
34.29	0	20
34.39	0	20
34.49	0	20
34.59	0	20
34.69	0	20
34.79	0	20
34.89	0.236	20.236
34.99	0.469	20.469
35.09	0.747	20.747
35.19	1.372	21.372
35.29	3.318	23.318
35.39	22.493	42.493
35.49	44.725	64.725
35.59	13.453	33.453
35.69	1.839	21.839
35.79	0.792	20.792
35.89	0.443	20.443
35.99	0.119	20.119
36.09	0	20
36.19	0	20
36.29	0	20
36.39	0	20
36.49	0	20
36.59	0	20
36.69	0	20
36.79	0	20
36.89	0	20
36.99	0	20
37.09	0	20
37.19	0	20
37.29	0	20
37.39	0	20
37.49	0	20
37.59	0	20
37.69	0	20
37.79	0	20
37.89	0	20
37.99	0	20
38.09	0	20
38.19	0	20
38.29	0	20
38.39	0	20
38.49	0.015	20.015
38.59	0.031	20.031
38.69	0.055	20.055
38.79	0.126	20.126
38.89	0.627	20.627
38.99	2.65	22.65
39.09	1.351	21.351
39.19	0.116	20.116
39.29	0.045	20.045
39.39	0.024	20.024
39.49	0.006	20.006
39.59	0	20
39.69	0	20
39.79	0	20
39.89	0	20
39.99	0	20
40.09	0.07	20.07
40.19	0.139	20.139
40.29	0.225	20.225
40.39	0.431	20.431
40.49	1.141	21.141
40.59	11.017	31.017
40.69	8.65	28.65
40.79	3.119	23.119
40.89	0.492	20.492
40.99	0.219	20.219
41.09	0.124	20.124
41.19	0.035	20.035
41.29	0	20
41.39	0	20
41.49	0	20
41.59	0	20
41.69	0	20
41.79	0	20
41.89	0	20
41.99	0	20
42.09	0	20
42.19	0	20
42.29	0	20
42.39	0	20
42.49	0	20
42.59	0	20
42.69	0	20
42.79	0.012	20.012
42.89	0.024	20.024
42.99	0.041	20.041
43.09	0.089	20.089
43.19	0.347	20.347
43.29	2.807	22.807
43.39	1.549	21.549
43.49	0.152	20.152
43.59	0.048	20.048
43.69	0.024	20.024
43.79	0.015	20.015
43.89	0.004	20.004
43.99	0	20
44.09	0	20
44.19	0	20
44.29	0	20
44.39	0	20
44.49	0	20
44.59	0	20
44.69	0	20
44.79	0	20
44.89	0	20
44.99	0	20
45.09	0	20
45.19	0	20
45.29	0	20
45.39	0	20
45.49	0	20
45.59	0	20
45.69	0	20
45.79	0	20
45.89	0	20
45.99	0	20
46.09	0	20
46.19	0	20
46.29	0	20
46.39	0	20
46.49	0	20
46.59	0	20
46.69	0	20
46.79	0	20
46.89	0	20
46.99	0	20
47.09	0	20
47.19	0	20
47.29	0	20
47.39	0	20
47.49	0	20
47.59	0	20
47.69	0	20
47.79	0	20
47.89	0	20
47.99	0	20
48.09	0	20
48.19	0	20
48.29	0	20
48.39	0	20
48.49	0	20
48.59	0	20
48.69	0.147	20.147
48.79	0.297	20.297
48.89	0.519	20.519
48.99	1.135	21.135
49.09	4.709	24.709
49.19	31.154	51.154
49.29	16.22	36.22
49.39	2.46	22.46
49.49	0.658	20.658
49.59	0.323	20.323
49.69	0.193	20.193
49.79	0.057	20.057
49.89	0	20
49.99	0	20
50.09	0	20
50.19	0	20
50.29	0	20
50.39	0	20
50.49	0	20
50.59	0	20
50.69	0	20
50.79	0	20
50.89	0	20
50.99	0	20
51.09	0	20
51.19	0	20
51.29	0	20
51.39	0	20
51.49	0	20
51.59	0	20
51.69	0	20
51.79	0	20
51.89	0	20
51.99	0	20
52.09	0	20
52.19	0	20
52.29	0	20
52.39	0	20
52.49	0	20
52.59	0	20
52.69	0	20
52.79	0	20
52.89	0	20
52.99	0	20
53.09	0	20
53.19	0.208	20.208
53.29	0.405	20.405
53.39	0.671	20.671
53.49	1.328	21.328
53.59	3.877	23.877
53.69	42.152	62.152
53.79	13.296	33.296
53.89	16.405	36.405
53.99	1.738	21.738
54.09	0.714	20.714
54.19	0.396	20.396
54.29	0.119	20.119
54.39	0.079	20.079
54.49	0	20
54.59	0	20
54.69	0	20
54.79	0	20
54.89	0	20
54.99	0	20
55.09	0	20
55.19	0	20
55.29	0	20
55.39	0.002	20.002
55.49	0.005	20.005
55.59	0.008	20.008
55.69	0.017	20.017
55.79	0.063	20.063
55.89	0.51	20.51
55.99	0.148	20.148
56.09	0.088	20.088
56.19	0.014	20.014
56.29	0.006	20.006
56.39	0.004	20.004
56.49	0.001	20.001
56.59	0.027	20.027
56.69	0.039	20.039
56.79	0.078	20.078
56.89	0.141	20.141
56.99	0.328	20.328
57.09	1.826	21.826
57.19	4.906	24.906
57.29	3.258	23.258
57.39	0.704	20.704
57.49	0.167	20.167
57.59	0.081	20.081
57.69	0.048	20.048
57.79	0.015	20.015
57.89	0	20
57.99	0	20
58.09	0	20
58.19	0	20
58.29	0	20
58.39	0	20
58.49	0	20
58.59	0	20
58.69	0	20
58.79	0	20
58.89	0	20
58.99	0	20
59.09	0	20
59.19	0	20
59.29	0	20
59.39	0	20
59.49	0	20
59.59	0	20
59.69	0	20
59.79	0	20
59.89	0	20
59.99	0	20
60.09	0	20
60.19	0	20
60.29	0	20
60.39	0	20
60.49	0	20
60.59	0	20
60.69	0	20
60.79	0	20
60.89	0	20
60.99	0	20
61.09	0	20
61.19	0	20
61.29	0	20
61.39	0	20
61.49	0	20
61.59	0.117	20.117
61.69	0.227	20.227
61.79	0.384	20.384
61.89	0.794	20.794
61.99	2.67	22.67
62.09	25.118	45.118
62.19	4.843	24.843
62.29	10.054	30.054
62.39	1.006	21.006
62.49	0.392	20.392
62.59	0.214	20.214
62.69	0.067	20.067
62.79	0.044	20.044
62.89	0	20
62.99	0	20
63.09	0	20
63.19	0.13	20.13
63.29	0.251	20.251
63.39	0.429	20.429
63.49	0.9	20.9
63.59	3.188	23.188
63.69	26.996	46.996
63.79	4.952	24.952
63.89	10.784	30.784
63.99	1.09	21.09
64.09	0.424	20.424
64.19	0.231	20.231
64.29	0.074	20.074
64.39	0.048	20.048
64.49	0	20
64.59	0	20
64.69	0	20
64.79	0	20
64.89	0	20
64.99	0	20
65.09	0.001	20.001
65.19	0.001	20.001
65.29	0.003	20.003
65.39	0.005	20.005
65.49	0.012	20.012
65.59	0.075	20.075
65.69	0.132	20.132
65.79	0.068	20.068
65.89	0.044	20.044
65.99	0.007	20.007
66.09	0.003	20.003
66.19	0.002	20.002
66.29	0.001	20.001
66.39	0	20
66.49	0	20
66.59	0	20
66.69	0	20
66.79	0	20
66.89	0	20
66.99	0	20
67.09	0	20
67.19	0	20
67.29	0	20
67.39	0	20
67.49	0	20
67.59	0	20
67.69	0	20
67.79	0	20
67.89	0	20
67.99	0	20
68.09	0	20
68.19	0	20
68.29	0	20
68.39	0	20
68.49	0	20
68.59	0.006	20.006
68.69	0.01	20.01
68.79	0.02	20.02
68.89	0.04	20.04
68.99	0.12	20.12
69.09	1.133	21.133
69.19	0.265	20.265
69.29	0.623	20.623
69.39	0.112	20.112
69.49	0.03	20.03
69.59	0.015	20.015
69.69	0.009	20.009
69.79	0.003	20.003
69.89	0.002	20.002
69.99	0	20
70.09	0	20
70.19	0	20
70.29	0	20
70.39	0	20
70.49	0	20
70.59	0	20
70.69	0	20
70.79	0.04	20.04
70.89	0.059	20.059
70.99	0.113	20.113
71.09	0.199	20.199
71.19	0.451	20.451
71.29	2.047	22.047
71.39	8.262	28.262
71.49	1.597	21.597
71.59	4.663	24.663
71.69	1.138	21.138
71.79	0.963	20.963
71.89	0.444	20.444
71.99	0.503	20.503
72.09	0.081	20.081
72.19	0.025	20.025
72.29	0.014	20.014
72.39	0.005	20.005
72.49	0.003	20.003
72.59	0	20
72.69	0	20
72.79	0	20
72.89	0	20
72.99	0	20
73.09	0	20
73.19	0	20
73.29	0	20
73.39	0	20
73.49	0	20
73.59	0	20
73.69	0	20
73.79	0	20
73.89	0	20
73.99	0	20
74.09	0	20
74.19	0.001	20.001
74.29	0.001	20.001
74.39	0.002	20.002
74.49	0.027	20.027
74.59	0.045	20.045
74.69	0.173	20.173
74.79	0.136	20.136
74.89	0.275	20.275
74.99	0.947	20.947
75.09	5.259	25.259
75.19	0.794	20.794
75.29	2.738	22.738
75.39	0.441	20.441
75.49	0.126	20.126
75.59	0.064	20.064
75.69	0.021	20.021
75.79	0.014	20.014
75.89	0.009	20.009
75.99	0	20
76.09	0	20
76.19	0	20
76.29	0	20
76.39	0	20
76.49	0	20
76.59	0	20
76.69	0.013	20.013
76.79	0.018	20.018
76.89	0.035	20.035
76.99	0.061	20.061
77.09	0.135	20.135
77.19	0.602	20.602
77.29	2.428	22.428
77.39	0.385	20.385
77.49	1.408	21.408
77.59	0.233	20.233
77.69	0.066	20.066
77.79	0.038	20.038
77.89	0.018	20.018
77.99	0.019	20.019
78.09	0.026	20.026
78.19	0.048	20.048
78.29	0.246	20.246
78.39	0.651	20.651
78.49	0.12	20.12
78.59	0.46	20.46
78.69	0.068	20.068
78.79	0.021	20.021
78.89	0.013	20.013
78.99	0.011	20.011
79.09	0.05	20.05
79.19	0.009	20.009
79.29	0.018	20.018
79.39	0.007	20.007
79.49	0.001	20.001
79.59	0.016	20.016
79.69	0.023	20.023
79.79	0.043	20.043
79.89	0.076	20.076
79.99	0.171	20.171
80.09	0.814	20.814
80.19	2.592	22.592
80.29	0.425	20.425
80.39	1.52	21.52
80.49	0.328	20.328
80.59	0.084	20.084
80.69	0.042	20.042
80.79	0.026	20.026
80.89	0.009	20.009
80.99	0.006	20.006
81.09	0	20
81.19	0	20
81.29	0	20
81.39	0	20
81.49	0	20
81.59	0	20
81.69	0.019	20.019
81.79	0.027	20.027
81.89	0.041	20.041
81.99	0.081	20.081
82.09	0.157	20.157
82.19	0.445	20.445
82.29	3.488	23.488
82.39	1.237	21.237
82.49	0.753	20.753
82.59	1.921	21.921
82.69	0.236	20.236
82.79	0.09	20.09
82.89	0.049	20.049
82.99	0.018	20.018
83.09	0.013	20.013
83.19	0.01	20.01
83.29	0.003	20.003
83.39	0.006	20.006
83.49	0.011	20.011
83.59	0.027	20.027
83.69	0.164	20.164
83.79	0.23	20.23
83.89	0.077	20.077
83.99	0.233	20.233
84.09	0.117	20.117
84.19	0.151	20.151
84.29	0.325	20.325
84.39	1.531	21.531
84.49	4.4	24.4
84.59	0.707	20.707
84.69	2.018	22.018
84.79	0.908	20.908
84.89	0.181	20.181
84.99	0.085	20.085
85.09	0.05	20.05
85.19	0.018	20.018
85.29	0.013	20.013
85.39	0	20
85.49	0	20
85.59	0	20
85.69	0	20
85.79	0	20
85.89	0	20
85.99	0	20
86.09	0	20
86.19	0	20
86.29	0	20
86.39	0	20
86.49	0	20
86.59	0	20
86.69	0	20
86.79	0	20
86.89	0	20
86.99	0	20
87.09	0	20
87.19	0	20
87.29	0	20
87.39	0.032	20.032
87.49	0.046	20.046
87.59	0.075	20.075
87.69	0.153	20.153
87.79	0.252	20.252
87.89	0.695	20.695
87.99	4.923	24.923
88.09	2.088	22.088
88.19	0.822	20.822
88.29	3.375	23.375
88.39	0.626	20.626
88.49	0.18	20.18
88.59	0.092	20.092
88.69	0.033	20.033
88.79	0.021	20.021
88.89	0.015	20.015
88.99	0	20
89.09	0	20
89.19	0	20
89.29	0	20
89.39	0	20
89.49	0	20
89.59	0	20
89.69	0	20
89.79	0	20
89.89	0	20
89.99	0	20
90.09	0	20
90.19	0.003	20.003
90.29	0.004	20.004
90.39	0.006	20.006
90.49	0.011	20.011
90.59	0.019	20.019
90.69	0.044	20.044
90.79	0.211	20.211
90.89	0.505	20.505
90.99	0.083	20.083
91.09	0.148	20.148
91.19	0.215	20.215
91.29	0.032	20.032
91.39	0.013	20.013
91.49	0.007	20.007
91.59	0.003	20.003
91.69	0.002	20.002
91.79	0.001	20.001
91.89	0	20
91.99	0	20
92.09	0	20
92.19	0	20
92.29	0.026	20.026
92.39	0.036	20.036
92.49	0.051	20.051
92.59	0.093	20.093
92.69	0.158	20.158
92.79	0.331	20.331
92.89	1.186	21.186
92.99	6.188	26.188
93.09	1.104	21.104
93.19	0.814	20.814
93.29	3.162	23.162
93.39	0.555	20.555
93.49	0.171	20.171
93.59	0.089	20.089
93.69	0.034	20.034
93.79	0.022	20.022
93.89	0.015	20.015
93.99	0	20
94.09	0	20
94.19	0.001	20.001
94.29	0.002	20.002
94.39	0.017	20.017
94.49	0.011	20.011
94.59	0.013	20.013
94.69	0.022	20.022
94.79	0.034	20.034
94.89	0.062	20.062
94.99	0.164	20.164
95.09	1.026	21.026
95.19	0.595	20.595
95.29	0.162	20.162
95.39	0.436	20.436
95.49	0.399	20.399
95.59	0.069	20.069
95.69	0.03	20.03
95.79	0.018	20.018
95.89	0.007	20.007
95.99	0.006	20.006
96.09	0.007	20.007
96.19	0.021	20.021
96.29	0.004	20.004
96.39	0.002	20.002
96.49	0.009	20.009
96.59	0.003	20.003
96.69	0.001	20.001
96.79	0	20
96.89	0	20
96.99	0	20
97.09	0	20
97.19	0	20
97.29	0	20
97.39	0	20
97.49	0	20
97.59	0	20
97.69	0	20
97.79	0	20
97.89	0	20
97.99	0	20
98.09	0	20
98.19	0	20
98.29	0	20
98.39	0	20
98.49	0	20
98.59	0	20
98.69	0	20
98.79	0	20
98.89	0	20
98.99	0	20
99.09	0	20
99.19	0	20
99.29	0	20
99.39	0	20
99.49	0	20
99.59	0	20
99.69	0	20
99.79	0	20
99.89	0.001	20.001
99.99	0.001	20.001
100.09	0.002	20.002
100.19	0.003	20.003
100.29	0.005	20.005
100.39	0.016	20.016
100.49	0.089	20.089
100.59	0.024	20.024
100.69	0.009	20.009
100.79	0.03	20.03
100.89	0.036	20.036
100.99	0.015	20.015
101.09	0.016	20.016
101.19	0.026	20.026
101.29	0.042	20.042
101.39	0.088	20.088
101.49	0.316	20.316
101.59	1.336	21.336
101.69	0.27	20.27
101.79	0.137	20.137
101.89	0.424	20.424
101.99	0.362	20.362
102.09	0.068	20.068
102.19	0.03	20.03
102.29	0.017	20.017
102.39	0.007	20.007
102.49	0.005	20.005
102.59	0.003	20.003
102.69	0.003	20.003
102.79	0	20
102.89	0	20
102.99	0	20
103.09	0	20
103.19	0	20
103.29	0	20
103.39	0.001	20.001
103.49	0.002	20.002
103.59	0.003	20.003
103.69	0.005	20.005
103.79	0.007	20.007
103.89	0.014	20.014
103.99	0.035	20.035
104.09	0.182	20.182
104.19	0.149	20.149
104.29	0.033	20.033
104.39	0.037	20.037
104.49	0.141	20.141
104.59	0.041	20.041
104.69	0.011	20.011
104.79	0.006	20.006
104.89	0.003	20.003
104.99	0.001	20.001
105.09	0.001	20.001
105.19	0.026	20.026
105.29	0.034	20.034
105.39	0.046	20.046
105.49	0.067	20.067
105.59	0.118	20.118
105.69	0.206	20.206
105.79	0.45	20.45
105.89	1.781	21.781
105.99	5.063	25.063
106.09	0.986	20.986
106.19	0.536	20.536
106.29	1.401	21.401
106.39	2.012	22.012
106.49	0.372	20.372
106.59	0.15	20.15
106.69	0.101	20.101
106.79	0.057	20.057
106.89	0.053	20.053
106.99	0.06	20.06
107.09	0.091	20.091
107.19	0.14	20.14
107.29	0.32	20.32
107.39	1.397	21.397
107.49	2.59	22.59
107.59	0.503	20.503
107.69	0.32	20.32
107.79	0.896	20.896
107.89	1.143	21.143
107.99	0.219	20.219
108.09	0.09	20.09
108.19	0.051	20.051
108.29	0.021	20.021
108.39	0.014	20.014
108.49	0.01	20.01
108.59	0.008	20.008
108.69	0	20
108.79	0	20
108.89	0.001	20.001
108.99	0.001	20.001
109.09	0.002	20.002
109.19	0.006	20.006
109.29	0.031	20.031
109.39	0.021	20.021
109.49	0.005	20.005
109.59	0.005	20.005
109.69	0.015	20.015
109.79	0.012	20.012
109.89	0.002	20.002
109.99	0.003	20.003
110.09	0.003	20.003
110.19	0.003	20.003
110.29	0.005	20.005
110.39	0.008	20.008
110.49	0.012	20.012
110.59	0.022	20.022
110.69	0.054	20.054
110.79	0.248	20.248
110.89	0.261	20.261
110.99	0.057	20.057
111.09	0.04	20.04
111.19	0.105	20.105
111.29	0.167	20.167
111.39	0.034	20.034
111.49	0.013	20.013
111.59	0.007	20.007
111.69	0.005	20.005
111.79	0.002	20.002
111.89	0.004	20.004
111.99	0.004	20.004
112.09	0.005	20.005
112.19	0.006	20.006
112.29	0.01	20.01
112.39	0.016	20.016
112.49	0.029	20.029
112.59	0.069	20.069
112.69	0.293	20.293
112.79	0.415	20.415
112.89	0.089	20.089
112.99	0.052	20.052
113.09	0.103	20.103
113.19	0.281	20.281
113.29	0.069	20.069
113.39	0.023	20.023
113.49	0.012	20.012
113.59	0.007	20.007
113.69	0.003	20.003
113.79	0.002	20.002
113.89	0.002	20.002
113.99	0.001	20.001
114.09	0	20
114.19	0.019	20.019
114.29	0.024	20.024
114.39	0.032	20.032
114.49	0.043	20.043
114.59	0.07	20.07
114.69	0.107	20.107
114.79	0.184	20.184
114.89	0.389	20.389
114.99	1.362	21.362
115.09	3.904	23.904
115.19	0.994	20.994
115.29	0.397	20.397
115.39	0.456	20.456
115.49	1.505	21.505
115.59	1.145	21.145
115.69	0.271	20.271
115.79	0.123	20.123
115.89	0.074	20.074
115.99	0.037	20.037
116.09	0.029	20.029
116.19	0.029	20.029
116.29	0.033	20.033
116.39	0.047	20.047
116.49	0.093	20.093
116.59	0.348	20.348
116.69	0.563	20.563
116.79	0.142	20.142
116.89	0.083	20.083
116.99	0.118	20.118
117.09	0.336	20.336
117.19	0.264	20.264
117.29	0.258	20.258
117.39	0.869	20.869
117.49	1.221	21.221
117.59	0.288	20.288
117.69	0.149	20.149
117.79	0.198	20.198
117.89	0.643	20.643
117.99	0.419	20.419
118.09	0.105	20.105
118.19	0.049	20.049
118.29	0.03	20.03
118.39	0.016	20.016
118.49	0.016	20.016
118.59	0.034	20.034
118.69	0.057	20.057
118.79	0.017	20.017
118.89	0.006	20.006
118.99	0.006	20.006
119.09	0.018	20.018
119.19	0.022	20.022
119.29	0.005	20.005
119.39	0.002	20.002
119.49	0.001	20.001
119.59	0.001	20.001
119.69	0	20
119.79	0	20
119.89	0	20
119.99	0	20
120.09	0	20
120.19	0	20
120.29	0	20
120.39	0	20
120.49	0	20
120.59	0.025	20.025
120.69	0.032	20.032
120.79	0.041	20.041
120.89	0.054	20.054
120.99	0.075	20.075
121.09	0.123	20.123
121.19	0.194	20.194
121.29	0.354	20.354
121.39	0.863	20.863
121.49	3.245	23.245
121.59	3.41	23.41
121.69	0.876	20.876
121.79	0.458	20.458
121.89	0.528	20.528
121.99	1.468	21.468
122.09	2.018	22.018
122.19	0.519	20.519
122.29	0.205	20.205
122.39	0.114	20.114
122.49	0.075	20.075
122.59	0.035	20.035
122.69	0.025	20.025
122.79	0.019	20.019
122.89	0.015	20.015
122.99	0.012	20.012
123.09	0	20
123.19	0	20
123.29	0	20
123.39	0.001	20.001
123.49	0.002	20.002
123.59	0.007	20.007
123.69	0.008	20.008
123.79	0.002	20.002
123.89	0.003	20.003
123.99	0.003	20.003
124.09	0.005	20.005
124.19	0.009	20.009
124.29	0.007	20.007
124.39	0.009	20.009
124.49	0.012	20.012
124.59	0.019	20.019
124.69	0.033	20.033
124.79	0.077	20.077
124.89	0.264	20.264
124.99	0.263	20.263
125.09	0.086	20.086
125.19	0.07	20.07
125.29	0.15	20.15
125.39	0.278	20.278
125.49	0.242	20.242
125.59	0.092	20.092
125.69	0.042	20.042
125.79	0.045	20.045
125.89	0.105	20.105
125.99	0.069	20.069
126.09	0.021	20.021
126.19	0.01	20.01
126.29	0.006	20.006
126.39	0.004	20.004
126.49	0.012	20.012
126.59	0.012	20.012
126.69	0.015	20.015
126.79	0.018	20.018
126.89	0.023	20.023
126.99	0.035	20.035
127.09	0.049	20.049
127.19	0.074	20.074
127.29	0.127	20.127
127.39	0.265	20.265
127.49	0.811	20.811
127.59	1.785	21.785
127.69	0.625	20.625
127.79	0.232	20.232
127.89	0.162	20.162
127.99	0.209	20.209
128.09	0.533	20.533
128.19	0.843	20.843
128.29	0.264	20.264
128.39	0.1	20.1
128.49	0.055	20.055
128.59	0.035	20.035
128.69	0.017	20.017
128.79	0.012	20.012
128.89	0.009	20.009
128.99	0.007	20.007
129.09	0.019	20.019
129.19	0.027	20.027
129.29	0.029	20.029
129.39	0.039	20.039
129.49	0.043	20.043
129.59	0.053	20.053
129.69	0.07	20.07
129.79	0.109	20.109
129.89	0.16	20.16
129.99	0.26	20.26
130.09	0.487	20.487
130.19	1.25	21.25
130.29	3.661	23.661
130.39	2.48	22.48
130.49	0.789	20.789
130.59	0.418	20.418
130.69	0.375	20.375
130.79	0.604	20.604
130.89	1.603	21.603
130.99	1.611	21.611
131.09	0.516	20.516
131.19	0.229	20.229
131.29	0.141	20.141
131.39	0.103	20.103
131.49	0.074	20.074
131.59	0.072	20.072
131.69	0.08	20.08
131.79	0.102	20.102
131.89	0.151	20.151
131.99	0.271	20.271
132.09	0.668	20.668
132.19	1.837	21.837
132.29	1.258	21.258
132.39	0.414	20.414
132.49	0.216	20.216
132.59	0.182	20.182
132.69	0.256	20.256
132.79	0.621	20.621
132.89	0.99	20.99
132.99	0.362	20.362
133.09	0.139	20.139
133.19	0.075	20.075
133.29	0.048	20.048
133.39	0.034	20.034
133.49	0.017	20.017
133.59	0.013	20.013
133.69	0.01	20.01
133.79	0.008	20.008
133.89	0.006	20.006
133.99	0.005	20.005
134.09	0.005	20.005
134.19	0	20
134.29	0	20
134.39	0	20
134.49	0	20
134.59	0	20
134.69	0	20
134.79	0	20
134.89	0	20
134.99	0	20
135.09	0	20
135.19	0	20
135.29	0	20
135.39	0	20
135.49	0	20
135.59	0	20
135.69	0	20
135.79	0	20
135.89	0	20
135.99	0	20
136.09	0	20
136.19	0	20
136.29	0	20
136.39	0	20
136.49	0	20
136.59	0.001	20.001
136.69	0.001	20.001
136.79	0.001	20.001
136.89	0.001	20.001
136.99	0.001	20.001
137.09	0.001	20.001
137.19	0.001	20.001
137.29	0.002	20.002
137.39	0.003	20.003
137.49	0.006	20.006
137.59	0.012	20.012
137.69	0.031	20.031
137.79	0.037	20.037
137.89	0.015	20.015
137.99	0.007	20.007
138.09	0.005	20.005
138.19	0.005	20.005
138.29	0.007	20.007
138.39	0.013	20.013
138.49	0.024	20.024
138.59	0.015	20.015
138.69	0.009	20.009
138.79	0.009	20.009
138.89	0.01	20.01
138.99	0.015	20.015
139.09	0.025	20.025
139.19	0.052	20.052
139.29	0.129	20.129
139.39	0.174	20.174
139.49	0.073	20.073
139.59	0.032	20.032
139.69	0.019	20.019
139.79	0.017	20.017
139.89	0.02	20.02
139.99	0.035	20.035
140	0.038	20.038