File: 学部3年/前期/学生実験/B2/XRD/NiFe2O4_calc.txt
Fe2NiO4	100
2	0	140
2.1	0	140
2.2	0	140
2.3	0	140
2.4	0	140
2.5	0	140
2.6	0	140
2.7	0	140
2.8	0	140
2.9	0	140
3	0	140
3.1	0	140
3.2	0	140
3.3	0	140
3.4	0	140
3.5	0	140
3.6	0	140
3.7	0	140
3.8	0	140
3.9	0	140
4	0	140
4.1	0	140
4.2	0	140
4.3	0	140
4.4	0	140
4.5	0	140
4.6	0	140
4.7	0	140
4.8	0	140
4.9	0	140
5	0	140
5.1	0	140
5.2	0	140
5.3	0	140
5.4	0	140
5.5	0	140
5.6	0	140
5.7	0	140
5.8	0	140
5.9	0	140
6	0	140
6.1	0	140
6.2	0	140
6.3	0	140
6.4	0	140
6.5	0	140
6.6	0	140
6.7	0	140
6.8	0	140
6.9	0	140
7	0	140
7.1	0	140
7.2	0	140
7.3	0	140
7.4	0	140
7.5	0	140
7.6	0	140
7.7	0	140
7.8	0	140
7.9	0	140
8	0	140
8.1	0	140
8.2	0	140
8.3	0	140
8.4	0	140
8.5	0	140
8.6	0	140
8.7	0	140
8.8	0	140
8.9	0	140
9	0	140
9.1	0	140
9.2	0	140
9.3	0	140
9.4	0	140
9.5	0	140
9.6	0	140
9.7	0	140
9.8	0	140
9.9	0	140
10	0	140
10.1	0	140
10.2	0	140
10.3	0	140
10.4	0	140
10.5	0	140
10.6	0	140
10.7	0	140
10.8	0	140
10.9	0	140
11	0	140
11.1	0	140
11.2	0	140
11.3	0	140
11.4	0	140
11.5	0	140
11.6	0	140
11.7	0	140
11.8	0	140
11.9	0	140
12	0	140
12.1	0	140
12.2	0	140
12.3	0	140
12.4	0	140
12.5	0	140
12.6	0	140
12.7	0	140
12.8	0	140
12.9	0	140
13	0	140
13.1	0	140
13.2	0	140
13.3	0	140
13.4	0	140
13.5	0	140
13.6	0	140
13.7	0	140
13.8	0	140
13.9	0	140
14	0	140
14.1	0	140
14.2	0	140
14.3	0	140
14.4	0	140
14.5	0	140
14.6	0	140
14.7	0	140
14.8	0	140
14.9	0	140
15	0	140
15.1	0	140
15.2	0	140
15.3	0	140
15.4	0	140
15.5	0	140
15.6	0	140
15.7	0	140
15.8	0	140
15.9	0	140
16	0	140
16.1	0	140
16.2	0	140
16.3	0	140
16.4	0	140
16.5	0	140
16.6	0	140
16.7	0	140
16.8	0	140
16.9	0	140
17	0	140
17.1	0	140
17.2	0	140
17.3	0	140
17.4	0	140
17.5	0	140
17.6	0	140
17.7	0.066	140.066
17.8	0.092	140.092
17.9	0.137	140.137
18	0.227	140.227
18.1	0.444	140.444
18.2	1.246	141.246
18.3	11.613	151.613
18.4	4.807	144.807
18.5	0.28	140.28
18.6	0.1	140.1
18.7	0.02	140.02
18.8	0	140
18.9	0	140
19	0	140
19.1	0	140
19.2	0	140
19.3	0	140
19.4	0	140
19.5	0	140
19.6	0	140
19.7	0	140
19.8	0	140
19.9	0	140
20	0	140
20.1	0	140
20.2	0	140
20.3	0	140
20.4	0	140
20.5	0	140
20.6	0	140
20.7	0	140
20.8	0	140
20.9	0	140
21	0	140
21.1	0	140
21.2	0	140
21.3	0	140
21.4	0	140
21.5	0	140
21.6	0	140
21.7	0	140
21.8	0	140
21.9	0	140
22	0	140
22.1	0	140
22.2	0	140
22.3	0	140
22.4	0	140
22.5	0	140
22.6	0	140
22.7	0	140
22.8	0	140
22.9	0	140
23	0	140
23.1	0	140
23.2	0	140
23.3	0	140
23.4	0	140
23.5	0	140
23.6	0	140
23.7	0	140
23.8	0	140
23.9	0	140
24	0	140
24.1	0	140
24.2	0	140
24.3	0	140
24.4	0	140
24.5	0	140
24.6	0	140
24.7	0	140
24.8	0	140
24.9	0	140
25	0	140
25.1	0	140
25.2	0	140
25.3	0	140
25.4	0	140
25.5	0	140
25.6	0	140
25.7	0	140
25.8	0	140
25.9	0	140
26	0	140
26.1	0	140
26.2	0	140
26.3	0	140
26.4	0	140
26.5	0	140
26.6	0	140
26.7	0	140
26.8	0	140
26.9	0	140
27	0	140
27.1	0	140
27.2	0	140
27.3	0	140
27.4	0	140
27.5	0	140
27.6	0	140
27.7	0	140
27.8	0	140
27.9	0	140
28	0	140
28.1	0	140
28.2	0	140
28.3	0	140
28.4	0	140
28.5	0	140
28.6	0	140
28.7	0	140
28.8	0	140
28.9	0	140
29	0	140
29.1	0	140
29.2	0	140
29.3	0	140
29.4	0	140
29.5	0	140
29.6	0	140
29.7	0.176	140.176
29.8	0.274	140.274
29.9	0.481	140.481
30	1.062	141.062
30.1	4.561	144.561
30.2	29.87	169.87
30.3	7.747	147.747
30.4	0.79	140.79
30.5	0.32	140.32
30.6	0.174	140.174
30.7	0.044	140.044
30.8	0	140
30.9	0	140
31	0	140
31.1	0	140
31.2	0	140
31.3	0	140
31.4	0	140
31.5	0	140
31.6	0	140
31.7	0	140
31.8	0	140
31.9	0	140
32	0	140
32.1	0	140
32.2	0	140
32.3	0	140
32.4	0	140
32.5	0	140
32.6	0	140
32.7	0	140
32.8	0	140
32.9	0	140
33	0	140
33.1	0	140
33.2	0	140
33.3	0	140
33.4	0	140
33.5	0	140
33.6	0	140
33.7	0	140
33.8	0	140
33.9	0	140
34	0	140
34.1	0	140
34.2	0	140
34.3	0	140
34.4	0	140
34.5	0	140
34.6	0	140
34.7	0	140
34.8	0	140
34.9	0	140
35	0	140
35.1	0.59	140.59
35.2	0.934	140.934
35.3	1.701	141.701
35.4	4.035	144.035
35.5	24.893	164.893
35.6	62.208	202.208
35.7	20.609	160.609
35.8	2.5	142.5
35.9	1.055	141.055
36	0.584	140.584
36.1	0.156	140.156
36.2	0	140
36.3	0	140
36.4	0	140
36.5	0	140
36.6	0	140
36.7	0.03	140.03
36.8	0.061	140.061
36.9	0.105	140.105
37	0.217	140.217
37.1	0.729	140.729
37.2	7.993	147.993
37.3	4.365	144.365
37.4	0.37	140.37
37.5	0.121	140.121
37.6	0.061	140.061
37.7	0.037	140.037
37.8	0.01	140.01
37.9	0	140
38	0	140
38.1	0	140
38.2	0	140
38.3	0	140
38.4	0	140
38.5	0	140
38.6	0	140
38.7	0	140
38.8	0	140
38.9	0	140
39	0	140
39.1	0	140
39.2	0	140
39.3	0	140
39.4	0	140
39.5	0	140
39.6	0	140
39.7	0	140
39.8	0	140
39.9	0	140
40	0	140
40.1	0	140
40.2	0	140
40.3	0	140
40.4	0	140
40.5	0	140
40.6	0	140
40.7	0	140
40.8	0	140
40.9	0	140
41	0	140
41.1	0	140
41.2	0	140
41.3	0	140
41.4	0	140
41.5	0	140
41.6	0	140
41.7	0	140
41.8	0	140
41.9	0	140
42	0	140
42.1	0	140
42.2	0	140
42.3	0	140
42.4	0	140
42.5	0	140
42.6	0	140
42.7	0.07	140.07
42.8	0.138	140.138
42.9	0.225	140.225
43	0.433	140.433
43.1	1.169	141.169
43.2	11.782	151.782
43.3	7.596	147.596
43.4	3.521	143.521
43.5	0.509	140.509
43.6	0.224	140.224
43.7	0.127	140.127
43.8	0.036	140.036
43.9	0	140
44	0	140
44.1	0	140
44.2	0	140
44.3	0	140
44.4	0	140
44.5	0	140
44.6	0	140
44.7	0	140
44.8	0	140
44.9	0	140
45	0	140
45.1	0	140
45.2	0	140
45.3	0	140
45.4	0	140
45.5	0	140
45.6	0	140
45.7	0	140
45.8	0	140
45.9	0	140
46	0	140
46.1	0	140
46.2	0	140
46.3	0	140
46.4	0	140
46.5	0	140
46.6	0	140
46.7	0	140
46.8	0	140
46.9	0.001	140.001
47	0.001	140.001
47.1	0.003	140.003
47.2	0.007	140.007
47.3	0.057	140.057
47.4	0.047	140.047
47.5	0.042	140.042
47.6	0.004	140.004
47.7	0.002	140.002
47.8	0.001	140.001
47.9	0	140
48	0	140
48.1	0	140
48.2	0	140
48.3	0	140
48.4	0	140
48.5	0	140
48.6	0	140
48.7	0	140
48.8	0	140
48.9	0	140
49	0	140
49.1	0	140
49.2	0	140
49.3	0	140
49.4	0	140
49.5	0	140
49.6	0	140
49.7	0	140
49.8	0	140
49.9	0	140
50	0	140
50.1	0	140
50.2	0	140
50.3	0	140
50.4	0	140
50.5	0	140
50.6	0	140
50.7	0	140
50.8	0	140
50.9	0	140
51	0	140
51.1	0	140
51.2	0	140
51.3	0	140
51.4	0	140
51.5	0	140
51.6	0	140
51.7	0	140
51.8	0	140
51.9	0	140
52	0	140
52.1	0	140
52.2	0	140
52.3	0	140
52.4	0	140
52.5	0	140
52.6	0	140
52.7	0	140
52.8	0	140
52.9	0	140
53	0	140
53.1	0.029	140.029
53.2	0.043	140.043
53.3	0.088	140.088
53.4	0.162	140.162
53.5	0.398	140.398
53.6	2.806	142.806
53.7	3.797	143.797
53.8	4.396	144.396
53.9	0.437	140.437
54	0.144	140.144
54.1	0.074	140.074
54.2	0.022	140.022
54.3	0.014	140.014
54.4	0	140
54.5	0	140
54.6	0	140
54.7	0	140
54.8	0	140
54.9	0	140
55	0	140
55.1	0	140
55.2	0	140
55.3	0	140
55.4	0	140
55.5	0	140
55.6	0	140
55.7	0	140
55.8	0	140
55.9	0	140
56	0	140
56.1	0	140
56.2	0	140
56.3	0	140
56.4	0	140
56.5	0	140
56.6	0	140
56.7	0.133	140.133
56.8	0.261	140.261
56.9	0.444	140.444
57	0.925	140.925
57.1	3.168	143.168
57.2	30.395	170.395
57.3	7.189	147.189
57.4	7.544	147.544
57.5	0.929	140.929
57.6	0.397	140.397
57.7	0.224	140.224
57.8	0.069	140.069
57.9	0.046	140.046
58	0	140
58.1	0	140
58.2	0	140
58.3	0	140
58.4	0	140
58.5	0	140
58.6	0	140
58.7	0	140
58.8	0	140
58.9	0	140
59	0	140
59.1	0	140
59.2	0	140
59.3	0	140
59.4	0	140
59.5	0	140
59.6	0	140
59.7	0	140
59.8	0	140
59.9	0	140
60	0	140
60.1	0	140
60.2	0	140
60.3	0	140
60.4	0	140
60.5	0	140
60.6	0	140
60.7	0	140
60.8	0	140
60.9	0	140
61	0	140
61.1	0	140
61.2	0	140
61.3	0	140
61.4	0	140
61.5	0	140
61.6	0	140
61.7	0	140
61.8	0	140
61.9	0	140
62	0	140
62.1	0	140
62.2	0	140
62.3	0.152	140.152
62.4	0.231	140.231
62.5	0.476	140.476
62.6	0.934	140.934
62.7	2.68	142.68
62.8	26.629	166.629
62.9	7.843	147.843
63	18.19	158.19
63.1	1.982	141.982
63.2	0.648	140.648
63.3	0.336	140.336
63.4	0.105	140.105
63.5	0.068	140.068
63.6	0	140
63.7	0	140
63.8	0	140
63.9	0	140
64	0	140
64.1	0	140
64.2	0	140
64.3	0	140
64.4	0	140
64.5	0	140
64.6	0	140
64.7	0	140
64.8	0	140
64.9	0	140
65	0	140
65.1	0	140
65.2	0	140
65.3	0	140
65.4	0	140
65.5	0.005	140.005
65.6	0.007	140.007
65.7	0.013	140.013
65.8	0.024	140.024
65.9	0.058	140.058
66	0.343	140.343
66.1	0.671	140.671
66.2	0.304	140.304
66.3	0.232	140.232
66.4	0.035	140.035
66.5	0.015	140.015
66.6	0.009	140.009
66.7	0.003	140.003
66.8	0.002	140.002
66.9	0.001	140.001
67	0.002	140.002
67.1	0.021	140.021
67.2	0.006	140.006
67.3	0.013	140.013
67.4	0.002	140.002
67.5	0.001	140.001
67.6	0	140
67.7	0	140
67.8	0	140
67.9	0	140
68	0	140
68.1	0	140
68.2	0	140
68.3	0	140
68.4	0	140
68.5	0	140
68.6	0	140
68.7	0	140
68.8	0	140
68.9	0	140
69	0	140
69.1	0	140
69.2	0	140
69.3	0	140
69.4	0	140
69.5	0	140
69.6	0	140
69.7	0	140
69.8	0	140
69.9	0	140
70	0	140
70.1	0	140
70.2	0	140
70.3	0	140
70.4	0	140
70.5	0	140
70.6	0	140
70.7	0.01	140.01
70.8	0.014	140.014
70.9	0.026	140.026
71	0.045	140.045
71.1	0.098	140.098
71.2	0.382	140.382
71.3	2.372	142.372
71.4	0.374	140.374
71.5	1.254	141.254
71.6	0.144	140.144
71.7	0.048	140.048
71.8	0.025	140.025
71.9	0.008	140.008
72	0.005	140.005
72.1	0	140
72.2	0	140
72.3	0	140
72.4	0	140
72.5	0	140
72.6	0	140
72.7	0	140
72.8	0	140
72.9	0	140
73	0	140
73.1	0	140
73.2	0	140
73.3	0	140
73.4	0	140
73.5	0	140
73.6	0	140
73.7	0	140
73.8	0.031	140.031
73.9	0.046	140.046
74	0.09	140.09
74.1	0.167	140.167
74.2	0.419	140.419
74.3	2.943	142.943
74.4	2.764	142.764
74.5	1.247	141.247
74.6	2.118	142.118
74.7	0.258	140.258
74.8	0.12	140.12
74.9	0.079	140.079
75	0.059	140.059
75.1	0.084	140.084
75.2	0.172	140.172
75.3	1.063	141.063
75.4	1.556	141.556
75.5	0.466	140.466
75.6	1.23	141.23
75.7	0.138	140.138
75.8	0.053	140.053
75.9	0.029	140.029
76	0.01	140.01
76.1	0.006	140.006
76.2	0	140
76.3	0	140
76.4	0	140
76.5	0	140
76.6	0	140
76.7	0	140
76.8	0	140
76.9	0	140
77	0	140
77.1	0	140
77.2	0	140
77.3	0	140
77.4	0	140
77.5	0	140
77.6	0	140
77.7	0	140
77.8	0	140
77.9	0	140
78	0	140
78.1	0	140
78.2	0	140
78.3	0	140
78.4	0	140
78.5	0	140
78.6	0	140
78.7	0	140
78.8	0.009	140.009
78.9	0.014	140.014
79	0.027	140.027
79.1	0.05	140.05
79.2	0.125	140.125
79.3	0.828	140.828
79.4	0.854	140.854
79.5	0.265	140.265
79.6	0.888	140.888
79.7	0.107	140.107
79.8	0.038	140.038
79.9	0.02	140.02
80	0.007	140.007
80.1	0.005	140.005
80.2	0.003	140.003
80.3	0	140
80.4	0	140
80.5	0	140
80.6	0	140
80.7	0	140
80.8	0	140
80.9	0	140
81	0	140
81.1	0	140
81.2	0	140
81.3	0	140
81.4	0	140
81.5	0	140
81.6	0	140
81.7	0.003	140.003
81.8	0.004	140.004
81.9	0.007	140.007
82	0.012	140.012
82.1	0.025	140.025
82.2	0.078	140.078
82.3	0.595	140.595
82.4	0.12	140.12
82.5	0.135	140.135
82.6	0.189	140.189
82.7	0.026	140.026
82.8	0.011	140.011
82.9	0.006	140.006
83	0.002	140.002
83.1	0.001	140.001
83.2	0	140
83.3	0	140
83.4	0	140
83.5	0	140
83.6	0	140
83.7	0	140
83.8	0	140
83.9	0	140
84	0	140
84.1	0	140
84.2	0	140
84.3	0	140
84.4	0	140
84.5	0	140
84.6	0	140
84.7	0	140
84.8	0	140
84.9	0	140
85	0	140
85.1	0	140
85.2	0	140
85.3	0	140
85.4	0	140
85.5	0	140
85.6	0	140
85.7	0	140
85.8	0	140
85.9	0	140
86	0	140
86.1	0	140
86.2	0	140
86.3	0	140
86.4	0	140
86.5	0	140
86.6	0.014	140.014
86.7	0.02	140.02
86.8	0.036	140.036
86.9	0.061	140.061
87	0.127	140.127
87.1	0.438	140.438
87.2	2.756	142.756
87.3	0.487	140.487
87.4	0.482	140.482
87.5	1.131	141.131
87.6	0.15	140.15
87.7	0.057	140.057
87.8	0.032	140.032
87.9	0.012	140.012
88	0.008	140.008
88.1	0.005	140.005
88.2	0	140
88.3	0	140
88.4	0	140
88.5	0	140
88.6	0	140
88.7	0	140
88.8	0	140
88.9	0	140
89	0	140
89.1	0	140
89.2	0	140
89.3	0	140
89.4	0	140
89.5	0.04	140.04
89.6	0.056	140.056
89.7	0.085	140.085
89.8	0.165	140.165
89.9	0.322	140.322
90	0.919	140.919
90.1	6.433	146.433
90.2	2.342	142.342
90.3	0.953	140.953
90.4	3.917	143.917
90.5	0.884	140.884
90.6	0.236	140.236
90.7	0.118	140.118
90.8	0.073	140.073
90.9	0.028	140.028
91	0.019	140.019
91.1	0	140
91.2	0	140
91.3	0	140
91.4	0	140
91.5	0	140
91.6	0	140
91.7	0	140
91.8	0	140
91.9	0	140
92	0	140
92.1	0	140
92.2	0	140
92.3	0	140
92.4	0	140
92.5	0	140
92.6	0	140
92.7	0	140
92.8	0	140
92.9	0	140
93	0	140
93.1	0	140
93.2	0	140
93.3	0	140
93.4	0	140
93.5	0	140
93.6	0	140
93.7	0	140
93.8	0	140
93.9	0	140
94	0	140
94.1	0	140
94.2	0	140
94.3	0.013	140.013
94.4	0.018	140.018
94.5	0.025	140.025
94.6	0.046	140.046
94.7	0.077	140.077
94.8	0.159	140.159
94.9	0.545	140.545
95	2.963	142.963
95.1	0.592	140.592
95.2	0.347	140.347
95.3	1.418	141.418
95.4	0.376	140.376
95.5	0.097	140.097
95.6	0.048	140.048
95.7	0.03	140.03
95.8	0.012	140.012
95.9	0.008	140.008
96	0.006	140.006
96.1	0	140
96.2	0	140
96.3	0	140
96.4	0	140
96.5	0	140
96.6	0	140
96.7	0	140
96.8	0	140
96.9	0	140
97	0	140
97.1	0	140
97.2	0	140
97.3	0	140
97.4	0	140
97.5	0	140
97.6	0	140
97.7	0.001	140.001
97.8	0.002	140.002
97.9	0.009	140.009
98	0.007	140.007
98.1	0.002	140.002
98.2	0.003	140.003
98.3	0.006	140.006
98.4	0.001	140.001
98.5	0	140
98.6	0	140
98.7	0	140
98.8	0.001	140.001
98.9	0.003	140.003
99	0.001	140.001
99.1	0	140
99.2	0.001	140.001
99.3	0.001	140.001
99.4	0	140
99.5	0	140
99.6	0	140
99.7	0	140
99.8	0	140
99.9	0	140
100	0	140
100.1	0	140
100.2	0	140
100.3	0	140
100.4	0	140
100.5	0	140
100.6	0	140
100.7	0	140
100.8	0	140
100.9	0	140
101	0	140
101.1	0	140
101.2	0	140
101.3	0	140
101.4	0	140
101.5	0	140
101.6	0	140
101.7	0	140
101.8	0	140
101.9	0	140
102	0	140
102.1	0.005	140.005
102.2	0.006	140.006
102.3	0.009	140.009
102.4	0.013	140.013
102.5	0.022	140.022
102.6	0.038	140.038
102.7	0.079	140.079
102.8	0.276	140.276
102.9	1.197	141.197
103	0.26	140.26
103.1	0.12	140.12
103.2	0.319	140.319
103.3	0.402	140.402
103.4	0.072	140.072
103.5	0.03	140.03
103.6	0.017	140.017
103.7	0.007	140.007
103.8	0.005	140.005
103.9	0.003	140.003
104	0.002	140.002
104.1	0	140
104.2	0	140
104.3	0	140
104.4	0	140
104.5	0	140
104.6	0	140
104.7	0	140
104.8	0	140
104.9	0	140
105	0	140
105.1	0.018	140.018
105.2	0.024	140.024
105.3	0.032	140.032
105.4	0.045	140.045
105.5	0.079	140.079
105.6	0.13	140.13
105.7	0.257	140.257
105.8	0.775	140.775
105.9	3.891	143.891
106	1.36	141.36
106.1	0.44	140.44
106.2	0.665	140.665
106.3	2.167	142.167
106.4	0.49	140.49
106.5	0.166	140.166
106.6	0.105	140.105
106.7	0.1	140.1
106.8	0.158	140.158
106.9	0.72	140.72
107	0.415	140.415
107.1	0.103	140.103
107.2	0.113	140.113
107.3	0.428	140.428
107.4	0.161	140.161
107.5	0.041	140.041
107.6	0.02	140.02
107.7	0.012	140.012
107.8	0.005	140.005
107.9	0.003	140.003
108	0.003	140.003
108.1	0.002	140.002
108.2	0	140
108.3	0	140
108.4	0	140
108.5	0	140
108.6	0	140
108.7	0	140
108.8	0	140
108.9	0	140
109	0	140
109.1	0	140
109.2	0	140
109.3	0	140
109.4	0	140
109.5	0	140
109.6	0	140
109.7	0	140
109.8	0	140
109.9	0	140
110	0	140
110.1	0	140
110.2	0.006	140.006
110.3	0.008	140.008
110.4	0.011	140.011
110.5	0.015	140.015
110.6	0.025	140.025
110.7	0.04	140.04
110.8	0.073	140.073
110.9	0.175	140.175
111	0.782	140.782
111.1	0.97	140.97
111.2	0.207	140.207
111.3	0.135	140.135
111.4	0.326	140.326
111.5	0.62	140.62
111.6	0.127	140.127
111.7	0.047	140.047
111.8	0.026	140.026
111.9	0.017	140.017
112	0.007	140.007
112.1	0.005	140.005
112.2	0.004	140.004
112.3	0.003	140.003
112.4	0	140
112.5	0	140
112.6	0	140
112.7	0	140
112.8	0	140
112.9	0	140
113	0	140
113.1	0	140
113.2	0	140
113.3	0.001	140.001
113.4	0.001	140.001
113.5	0.001	140.001
113.6	0.002	140.002
113.7	0.003	140.003
113.8	0.004	140.004
113.9	0.007	140.007
114	0.014	140.014
114.1	0.039	140.039
114.2	0.17	140.17
114.3	0.084	140.084
114.4	0.023	140.023
114.5	0.019	140.019
114.6	0.051	140.051
114.7	0.082	140.082
114.8	0.018	140.018
114.9	0.007	140.007
115	0.005	140.005
115.1	0.005	140.005
115.2	0.008	140.008
115.3	0.024	140.024
115.4	0.007	140.007
115.5	0.003	140.003
115.6	0.002	140.002
115.7	0.008	140.008
115.8	0.008	140.008
115.9	0.002	140.002
116	0.001	140.001
116.1	0	140
116.2	0	140
116.3	0	140
116.4	0	140
116.5	0	140
116.6	0	140
116.7	0	140
116.8	0	140
116.9	0	140
117	0	140
117.1	0	140
117.2	0	140
117.3	0	140
117.4	0	140
117.5	0	140
117.6	0	140
117.7	0	140
117.8	0	140
117.9	0	140
118	0	140
118.1	0	140
118.2	0	140
118.3	0	140
118.4	0	140
118.5	0	140
118.6	0	140
118.7	0.002	140.002
118.8	0.002	140.002
118.9	0.002	140.002
119	0.003	140.003
119.1	0.004	140.004
119.2	0.007	140.007
119.3	0.01	140.01
119.4	0.018	140.018
119.5	0.037	140.037
119.6	0.121	140.121
119.7	0.338	140.338
119.8	0.102	140.102
119.9	0.037	140.037
120	0.032	140.032
120.1	0.074	140.074
120.2	0.169	140.169
120.3	0.048	140.048
120.4	0.016	140.016
120.5	0.009	140.009
120.6	0.005	140.005
120.7	0.003	140.003
120.8	0.002	140.002
120.9	0.001	140.001
121	0.001	140.001
121.1	0.001	140.001
121.2	0	140
121.3	0	140
121.4	0	140
121.5	0	140
121.6	0	140
121.7	0	140
121.8	0	140
121.9	0	140
122	0	140
122.1	0.015	140.015
122.2	0.018	140.018
122.3	0.023	140.023
122.4	0.029	140.029
122.5	0.039	140.039
122.6	0.062	140.062
122.7	0.092	140.092
122.8	0.15	140.15
122.9	0.291	140.291
123	0.81	140.81
123.1	2.769	142.769
123.2	1.464	141.464
123.3	0.435	140.435
123.4	0.275	140.275
123.5	0.37	140.37
123.6	1.081	141.081
123.7	1.119	141.119
123.8	0.296	140.296
123.9	0.124	140.124
124	0.071	140.071
124.1	0.047	140.047
124.2	0.022	140.022
124.3	0.016	140.016
124.4	0.012	140.012
124.5	0.009	140.009
124.6	0.008	140.008
124.7	0	140
124.8	0	140
124.9	0	140
125	0	140
125.1	0	140
125.2	0	140
125.3	0	140
125.4	0	140
125.5	0	140
125.6	0	140
125.7	0	140
125.8	0	140
125.9	0	140
126	0	140
126.1	0	140
126.2	0	140
126.3	0	140
126.4	0	140
126.5	0	140
126.6	0	140
126.7	0	140
126.8	0	140
126.9	0	140
127	0	140
127.1	0	140
127.2	0	140
127.3	0	140
127.4	0	140
127.5	0	140
127.6	0	140
127.7	0	140
127.8	0	140
127.9	0	140
128	0.024	140.024
128.1	0.028	140.028
128.2	0.034	140.034
128.3	0.043	140.043
128.4	0.054	140.054
128.5	0.072	140.072
128.6	0.111	140.111
128.7	0.159	140.159
128.8	0.247	140.247
128.9	0.44	140.44
129	1.007	141.007
129.1	3.191	143.191
129.2	4.168	144.168
129.3	1.279	141.279
129.4	0.564	140.564
129.5	0.44	140.44
129.6	0.619	140.619
129.7	1.607	141.607
129.8	2.212	142.212
129.9	0.701	140.701
130	0.277	140.277
130.1	0.154	140.154
130.2	0.1	140.1
130.3	0.071	140.071
130.4	0.035	140.035
130.5	0.026	140.026
130.6	0.02	140.02
130.7	0.016	140.016
130.8	0.013	140.013
130.9	0.011	140.011
131	0	140
131.1	0	140
131.2	0	140
131.3	0	140
131.4	0	140
131.5	0	140
131.6	0	140
131.7	0	140
131.8	0	140
131.9	0.001	140.001
132	0.001	140.001
132.1	0.001	140.001
132.2	0.001	140.001
132.3	0.001	140.001
132.4	0.002	140.002
132.5	0.002	140.002
132.6	0.004	140.004
132.7	0.006	140.006
132.8	0.01	140.01
132.9	0.024	140.024
133	0.07	140.07
133.1	0.066	140.066
133.2	0.022	140.022
133.3	0.01	140.01
133.4	0.008	140.008
133.5	0.01	140.01
133.6	0.02	140.02
133.7	0.045	140.045
133.8	0.023	140.023
133.9	0.008	140.008
134	0.004	140.004
134.1	0.002	140.002
134.2	0.002	140.002
134.3	0.001	140.001
134.4	0.001	140.001
134.5	0	140
134.6	0	140
134.7	0	140
134.8	0	140
134.9	0	140
135	0	140
135.1	0	140
135.2	0	140
135.3	0	140
135.4	0	140
135.5	0	140
135.6	0	140
135.7	0	140
135.8	0	140
135.9	0	140
136	0	140
136.1	0	140
136.2	0	140
136.3	0	140
136.4	0	140
136.5	0	140
136.6	0	140
136.7	0	140
136.8	0	140
136.9	0	140
137	0	140
137.1	0	140
137.2	0	140
137.3	0	140
137.4	0	140
137.5	0	140
137.6	0	140
137.7	0	140
137.8	0	140
137.9	0	140
138	0	140
138.1	0	140
138.2	0	140
138.3	0	140
138.4	0	140
138.5	0	140
138.6	0	140
138.7	0.006	140.006
138.8	0.006	140.006
138.9	0.008	140.008
139	0.009	140.009
139.1	0.011	140.011
139.2	0.013	140.013
139.3	0.016	140.016
139.4	0.023	140.023
139.5	0.03	140.03
139.6	0.041	140.041
139.7	0.059	140.059
139.8	0.092	140.092
139.9	0.165	140.165
140	0.364	140.364