File: 学部3年/前期/学生実験/B2/XRD/Sample1_NaOH_2θ_θ.TXT
Sample	äwê∂é¿å±3TM_NaOH
Comments
Filename	C:\Users\User1\Desktop\DATA\äwê∂é¿å±3TM\äwê∂é¿å±3TM_NaOH_2É∆_É∆.raw
Goniometer	MiniFlex 300/600 +
Attachment	âÒì]ééóøë‰
Monochromater	None
X	0
Y	0
Z	0
ScanningMode	2Theta/Theta
ScanningType	Continuos Scanning
X-Ray	40kV/15mA
IHS	5.0mm
DS	1.250deg
SS	13.0mm(Open)
RS	13.0mm(Open)
K-beta(x1)
Start	20
Stop	80
Step	0.01
Speed	1
Offset	0	20273
20	914	384.508
20.05	896	384.42
20.1	907	384.474
20.15	955	384.711
20.2	981	384.839
20.25	943	384.652
20.3	926	384.568
20.35	894	384.41
20.4	923	384.553
20.45	891	384.395
20.5	909	384.484
20.55	893	384.405
20.6	908	384.479
20.65	948	384.676
20.7	933	384.602
20.75	909	384.484
20.8	899	384.434
20.85	896	384.42
20.9	914	384.508
20.95	926	384.568
21	927	384.573
21.05	913	384.504
21.1	925	384.563
21.15	953	384.701
21.2	933	384.602
21.25	931	384.592
21.3	953	384.701
21.35	895	384.415
21.4	914	384.508
21.45	938	384.627
21.5	895	384.415
21.55	897	384.425
21.6	909	384.484
21.65	922	384.548
21.7	965	384.76
21.75	954	384.706
21.8	912	384.499
21.85	885	384.365
21.9	946	384.666
21.95	906	384.469
22	964	384.755
22.05	945	384.661
22.1	923	384.553
22.15	928	384.578
22.2	932	384.597
22.25	937	384.622
22.3	944	384.656
22.35	943	384.652
22.4	940	384.637
22.45	956	384.716
22.5	928	384.578
22.55	931	384.592
22.6	943	384.652
22.65	905	384.464
22.7	940	384.637
22.75	927	384.573
22.8	967	384.77
22.85	1049	385.174
22.9	1129	385.569
22.95	1034	385.1
23	975	384.809
23.05	954	384.706
23.1	947	384.671
23.15	956	384.716
23.2	916	384.518
23.25	938	384.627
23.3	933	384.602
23.35	921	384.543
23.4	949	384.681
23.45	931	384.592
23.5	960	384.735
23.55	988	384.873
23.6	921	384.543
23.65	944	384.656
23.7	948	384.676
23.75	946	384.666
23.8	937	384.622
23.85	928	384.578
23.9	928	384.578
23.95	942	384.647
24	929	384.582
24.05	915	384.513
24.1	966	384.765
24.15	936	384.617
24.2	939	384.632
24.25	952	384.696
24.3	953	384.701
24.35	962	384.745
24.4	978	384.824
24.45	949	384.681
24.5	959	384.73
24.55	982	384.844
24.6	934	384.607
24.65	945	384.661
24.7	923	384.553
24.75	930	384.587
24.8	940	384.637
24.85	964	384.755
24.9	945	384.661
24.95	927	384.573
25	957	384.721
25.05	975	384.809
25.1	947	384.671
25.15	956	384.716
25.2	936	384.617
25.25	984	384.854
25.3	1005	384.957
25.35	929	384.582
25.4	976	384.814
25.45	949	384.681
25.5	968	384.775
25.55	969	384.78
25.6	976	384.814
25.65	960	384.735
25.7	999	384.928
25.75	967	384.77
25.8	990	384.883
25.85	960	384.735
25.9	987	384.869
25.95	975	384.809
26	1003	384.947
26.05	971	384.79
26.1	970	384.785
26.15	981	384.839
26.2	893	384.405
26.25	975	384.809
26.3	937	384.622
26.35	979	384.829
26.4	965	384.76
26.45	967	384.77
26.5	988	384.873
26.55	988	384.873
26.6	994	384.903
26.65	993	384.898
26.7	993	384.898
26.75	980	384.834
26.8	1012	384.992
26.85	977	384.819
26.9	939	384.632
26.95	975	384.809
27	985	384.859
27.05	969	384.78
27.1	966	384.765
27.15	1015	385.007
27.2	996	384.913
27.25	968	384.775
27.3	969	384.78
27.35	1003	384.947
27.4	1021	385.036
27.45	969	384.78
27.5	981	384.839
27.55	1040	385.13
27.6	1004	384.952
27.65	965	384.76
27.7	1010	384.982
27.75	970	384.785
27.8	993	384.898
27.85	1003	384.947
27.9	994	384.903
27.95	995	384.908
28	1029	385.076
28.05	956	384.716
28.1	959	384.73
28.15	1002	384.943
28.2	992	384.893
28.25	993	384.898
28.3	1014	385.002
28.35	990	384.883
28.4	1003	384.947
28.45	995	384.908
28.5	1007	384.967
28.55	996	384.913
28.6	977	384.819
28.65	983	384.849
28.7	1025	385.056
28.75	1017	385.017
28.8	967	384.77
28.85	994	384.903
28.9	1009	384.977
28.95	996	384.913
29	1002	384.943
29.05	1039	385.125
29.1	1017	385.017
29.15	998	384.923
29.2	1032	385.091
29.25	1009	384.977
29.3	1034	385.1
29.35	1001	384.938
29.4	1025	385.056
29.45	1052	385.189
29.5	1062	385.238
29.55	1042	385.14
29.6	1055	385.204
29.65	1046	385.16
29.7	1030	385.081
29.75	1065	385.253
29.8	1031	385.086
29.85	1034	385.1
29.9	1103	385.441
29.95	1088	385.367
30	1114	385.495
30.05	1074	385.298
30.1	1098	385.416
30.15	1122	385.534
30.2	1187	385.855
30.25	1491	387.355
30.3	3675	398.128
30.35	5743	408.328
30.4	3777	398.631
30.45	2105	390.383
30.5	1220	386.018
30.55	1191	385.875
30.6	1102	385.436
30.65	1069	385.273
30.7	1039	385.125
30.75	1073	385.293
30.8	1088	385.367
30.85	1030	385.081
30.9	1055	385.204
30.95	1065	385.253
31	1056	385.209
31.05	1089	385.372
31.1	1025	385.056
31.15	1073	385.293
31.2	1038	385.12
31.25	1054	385.199
31.3	1043	385.145
31.35	1032	385.091
31.4	1059	385.224
31.45	1041	385.135
31.5	1005	384.957
31.55	1031	385.086
31.6	1062	385.238
31.65	1069	385.273
31.7	1057	385.214
31.75	1082	385.337
31.8	1087	385.362
31.85	1119	385.52
31.9	1045	385.155
31.95	1037	385.115
32	1039	385.125
32.05	1089	385.372
32.1	1072	385.288
32.15	1092	385.386
32.2	1138	385.613
32.25	1104	385.446
32.3	1074	385.298
32.35	1063	385.243
32.4	1111	385.48
32.45	1072	385.288
32.5	1061	385.234
32.55	1087	385.362
32.6	1054	385.199
32.65	1048	385.169
32.7	1073	385.293
32.75	1025	385.056
32.8	1048	385.169
32.85	1064	385.248
32.9	1090	385.377
32.95	1078	385.317
33	1063	385.243
33.05	1071	385.283
33.1	1075	385.303
33.15	1066	385.258
33.2	1096	385.406
33.25	1064	385.248
33.3	1140	385.623
33.35	1079	385.322
33.4	1140	385.623
33.45	1114	385.495
33.5	1083	385.342
33.55	1082	385.337
33.6	1105	385.451
33.65	1128	385.564
33.7	1089	385.372
33.75	1088	385.367
33.8	1092	385.386
33.85	1092	385.386
33.9	1125	385.549
33.95	1136	385.604
34	1125	385.549
34.05	1142	385.633
34.1	1148	385.663
34.15	1163	385.737
34.2	1135	385.599
34.25	1125	385.549
34.3	1085	385.352
34.35	1127	385.559
34.4	1106	385.456
34.45	1176	385.801
34.5	1215	385.993
34.55	1333	386.575
34.6	1331	386.565
34.65	1270	386.264
34.7	1270	386.264
34.75	1140	385.623
34.8	1153	385.687
34.85	1140	385.623
34.9	1171	385.776
34.95	1201	385.924
35	1172	385.781
35.05	1197	385.904
35.1	1185	385.845
35.15	1220	386.018
35.2	1196	385.899
35.25	1268	386.255
35.3	1242	386.126
35.35	1322	386.521
35.4	1339	386.605
35.45	1386	386.837
35.5	1484	387.32
35.55	1683	388.302
35.6	2037	390.048
35.65	3851	398.996
35.7	15444	456.18
35.75	13317	445.688
35.8	10603	432.301
35.85	5384	406.557
35.9	1980	389.767
35.95	1588	387.833
36	1429	387.049
36.05	1434	387.073
36.1	1374	386.777
36.15	1333	386.575
36.2	1318	386.501
36.25	1296	386.393
36.3	1325	386.536
36.35	1248	386.156
36.4	1344	386.63
36.45	1374	386.777
36.5	1318	386.501
36.55	1274	386.284
36.6	1209	385.964
36.65	1186	385.85
36.7	1204	385.939
36.75	1209	385.964
36.8	1202	385.929
36.85	1203	385.934
36.9	1210	385.969
36.95	1199	385.914
37	1206	385.949
37.05	1224	386.038
37.1	1193	385.885
37.15	1241	386.121
37.2	1259	386.21
37.25	1314	386.482
37.3	1462	387.212
37.35	2732	393.476
37.4	2061	390.166
37.45	2138	390.546
37.5	1528	387.537
37.55	1265	386.24
37.6	1230	386.067
37.65	1180	385.821
37.7	1228	386.057
37.75	1154	385.692
37.8	1157	385.707
37.85	1176	385.801
37.9	1213	385.983
37.95	1207	385.954
38	1202	385.929
38.05	1211	385.973
38.1	1225	386.043
38.15	1226	386.047
38.2	1188	385.86
38.25	1172	385.781
38.3	1189	385.865
38.35	1163	385.737
38.4	1245	386.141
38.45	1198	385.909
38.5	1213	385.983
38.55	1253	386.181
38.6	1156	385.702
38.65	1196	385.899
38.7	1181	385.825
38.75	1208	385.959
38.8	1171	385.776
38.85	1194	385.89
38.9	1172	385.781
38.95	1213	385.983
39	1197	385.904
39.05	1237	386.102
39.1	1179	385.816
39.15	1193	385.885
39.2	1205	385.944
39.25	1177	385.806
39.3	1190	385.87
39.35	1230	386.067
39.4	1231	386.072
39.45	1238	386.107
39.5	1209	385.964
39.55	1218	386.008
39.6	1195	385.895
39.65	1190	385.87
39.7	1218	386.008
39.75	1201	385.924
39.8	1202	385.929
39.85	1218	386.008
39.9	1196	385.899
39.95	1224	386.038
40	1201	385.924
40.05	1205	385.944
40.1	1168	385.761
40.15	1166	385.751
40.2	1197	385.904
40.25	1245	386.141
40.3	1205	385.944
40.35	1235	386.092
40.4	1215	385.993
40.45	1199	385.914
40.5	1220	386.018
40.55	1208	385.959
40.6	1270	386.264
40.65	1226	386.047
40.7	1243	386.131
40.75	1250	386.166
40.8	1301	386.417
40.85	1218	386.008
40.9	1247	386.151
40.95	1250	386.166
41	1216	385.998
41.05	1248	386.156
41.1	1216	385.998
41.15	1257	386.2
41.2	1255	386.19
41.25	1272	386.274
41.3	1237	386.102
41.35	1244	386.136
41.4	1246	386.146
41.45	1258	386.205
41.5	1292	386.373
41.55	1308	386.452
41.6	1322	386.521
41.65	1338	386.6
41.7	1456	387.182
41.75	1630	388.04
41.8	1597	387.877
41.85	1521	387.503
41.9	1475	387.276
41.95	1360	386.708
42	1328	386.551
42.05	1303	386.427
42.1	1304	386.432
42.15	1289	386.358
42.2	1263	386.23
42.25	1325	386.536
42.3	1241	386.121
42.35	1263	386.23
42.4	1243	386.131
42.45	1267	386.25
42.5	1335	386.585
42.55	1285	386.338
42.6	1273	386.279
42.65	1276	386.294
42.7	1276	386.294
42.75	1294	386.383
42.8	1236	386.097
42.85	1260	386.215
42.9	1372	386.768
42.95	1341	386.615
43	1412	386.965
43.05	1394	386.876
43.1	1447	387.138
43.15	1427	387.039
43.2	1440	387.103
43.25	1527	387.532
43.3	1602	387.902
43.35	2592	392.785
43.4	7370	416.354
43.45	3768	398.586
43.5	3808	398.784
43.55	3152	395.548
43.6	1616	387.971
43.65	1468	387.241
43.7	1413	386.97
43.75	1361	386.713
43.8	1322	386.521
43.85	1332	386.57
43.9	1341	386.615
43.95	1295	386.388
44	1282	386.324
44.05	1360	386.708
44.1	1347	386.644
44.15	1283	386.329
44.2	1302	386.422
44.25	1324	386.531
44.3	1301	386.417
44.35	1304	386.432
44.4	1321	386.516
44.45	1315	386.486
44.5	1323	386.526
44.55	1293	386.378
44.6	1311	386.467
44.65	1283	386.329
44.7	1316	386.491
44.75	1333	386.575
44.8	1361	386.713
44.85	1272	386.274
44.9	1306	386.442
44.95	1291	386.368
45	1312	386.472
45.05	1316	386.491
45.1	1303	386.427
45.15	1354	386.679
45.2	1339	386.605
45.25	1315	386.486
45.3	1316	386.491
45.35	1330	386.56
45.4	1339	386.605
45.45	1328	386.551
45.5	1324	386.531
45.55	1344	386.63
45.6	1308	386.452
45.65	1332	386.57
45.7	1316	386.491
45.75	1297	386.398
45.8	1302	386.422
45.85	1375	386.782
45.9	1357	386.694
45.95	1351	386.664
46	1358	386.699
46.05	1343	386.625
46.1	1308	386.452
46.15	1345	386.634
46.2	1338	386.6
46.25	1349	386.654
46.3	1314	386.482
46.35	1338	386.6
46.4	1330	386.56
46.45	1363	386.723
46.5	1324	386.531
46.55	1329	386.556
46.6	1366	386.738
46.65	1316	386.491
46.7	1350	386.659
46.75	1304	386.432
46.8	1333	386.575
46.85	1325	386.536
46.9	1321	386.516
46.95	1360	386.708
47	1356	386.689
47.05	1333	386.575
47.1	1347	386.644
47.15	1335	386.585
47.2	1367	386.743
47.25	1369	386.753
47.3	1332	386.57
47.35	1401	386.911
47.4	1403	386.921
47.45	1372	386.768
47.5	1419	386.999
47.55	1417	386.99
47.6	1404	386.925
47.65	1456	387.182
47.7	1396	386.886
47.75	1346	386.639
47.8	1356	386.689
47.85	1365	386.733
47.9	1343	386.625
47.95	1391	386.861
48	1368	386.748
48.05	1372	386.768
48.1	1385	386.832
48.15	1381	386.812
48.2	1377	386.792
48.25	1382	386.817
48.3	1360	386.708
48.35	1362	386.718
48.4	1355	386.684
48.45	1347	386.644
48.5	1369	386.753
48.55	1342	386.62
48.6	1365	386.733
48.65	1422	387.014
48.7	1372	386.768
48.75	1359	386.703
48.8	1374	386.777
48.85	1378	386.797
48.9	1399	386.901
48.95	1388	386.847
49	1411	386.96
49.05	1357	386.694
49.1	1347	386.644
49.15	1370	386.758
49.2	1372	386.768
49.25	1423	387.019
49.3	1403	386.921
49.35	1421	387.009
49.4	1352	386.669
49.45	1378	386.797
49.5	1376	386.787
49.55	1420	387.004
49.6	1432	387.064
49.65	1449	387.147
49.7	1418	386.995
49.75	1401	386.911
49.8	1445	387.128
49.85	1464	387.221
49.9	1440	387.103
49.95	1430	387.054
50	1417	386.99
50.05	1403	386.921
50.1	1417	386.99
50.15	1444	387.123
50.2	1439	387.098
50.25	1400	386.906
50.3	1408	386.945
50.35	1440	387.103
50.4	1448	387.143
50.45	1429	387.049
50.5	1418	386.995
50.55	1369	386.753
50.6	1350	386.659
50.65	1390	386.856
50.7	1367	386.743
50.75	1428	387.044
50.8	1428	387.044
50.85	1457	387.187
50.9	1413	386.97
50.95	1510	387.448
51	1424	387.024
51.05	1463	387.216
51.1	1475	387.276
51.15	1448	387.143
51.2	1451	387.157
51.25	1435	387.078
51.3	1445	387.128
51.35	1411	386.96
51.4	1508	387.438
51.45	1480	387.3
51.5	1488	387.34
51.55	1447	387.138
51.6	1450	387.152
51.65	1424	387.024
51.7	1446	387.133
51.75	1484	387.32
51.8	1445	387.128
51.85	1452	387.162
51.9	1436	387.083
51.95	1440	387.103
52	1452	387.162
52.05	1460	387.202
52.1	1423	387.019
52.15	1450	387.152
52.2	1465	387.226
52.25	1478	387.29
52.3	1468	387.241
52.35	1448	387.143
52.4	1471	387.256
52.45	1462	387.212
52.5	1491	387.355
52.55	1435	387.078
52.6	1478	387.29
52.65	1481	387.305
52.7	1474	387.271
52.75	1521	387.503
52.8	1449	387.147
52.85	1463	387.216
52.9	1483	387.315
52.95	1490	387.35
53	1466	387.231
53.05	1457	387.187
53.1	1490	387.35
53.15	1505	387.424
53.2	1507	387.434
53.25	1474	387.271
53.3	1499	387.394
53.35	1521	387.503
53.4	1485	387.325
53.45	1505	387.424
53.5	1528	387.537
53.55	1568	387.734
53.6	1567	387.729
53.65	1521	387.503
53.7	1586	387.823
53.75	1732	388.543
53.8	2407	391.873
53.85	4457	401.985
53.9	2372	391.7
53.95	2222	390.96
54	2910	394.354
54.05	1890	389.323
54.1	1642	388.099
54.15	1574	387.764
54.2	1545	387.621
54.25	1562	387.705
54.3	1520	387.498
54.35	1538	387.586
54.4	1578	387.784
54.45	1555	387.67
54.5	1543	387.611
54.55	1481	387.305
54.6	1549	387.641
54.65	1519	387.493
54.7	1487	387.335
54.75	1485	387.325
54.8	1510	387.448
54.85	1544	387.616
54.9	1545	387.621
54.95	1591	387.848
55	1539	387.591
55.05	1552	387.656
55.1	1494	387.369
55.15	1547	387.631
55.2	1491	387.355
55.25	1598	387.882
55.3	1575	387.769
55.35	1569	387.739
55.4	1579	387.789
55.45	1585	387.818
55.5	1556	387.675
55.55	1537	387.582
55.6	1513	387.463
55.65	1588	387.833
55.7	1542	387.606
55.75	1532	387.557
55.8	1584	387.813
55.85	1581	387.799
55.9	1548	387.636
55.95	1574	387.764
56	1566	387.725
56.05	1560	387.695
56.1	1528	387.537
56.15	1561	387.7
56.2	1582	387.803
56.25	1625	388.016
56.3	1591	387.848
56.35	1635	388.065
56.4	1652	388.149
56.45	1591	387.848
56.5	1613	387.956
56.55	1603	387.907
56.6	1592	387.853
56.65	1625	388.016
56.7	1573	387.759
56.75	1604	387.912
56.8	1607	387.927
56.85	1611	387.947
56.9	1654	388.159
56.95	1641	388.095
57	1705	388.41
57.05	1705	388.41
57.1	1743	388.598
57.15	1846	389.106
57.2	1812	388.938
57.25	1908	389.412
57.3	2246	391.079
57.35	4290	401.161
57.4	10859	433.564
57.45	4544	402.414
57.5	3204	395.804
57.55	6108	410.129
57.6	3468	397.106
57.65	2021	389.969
57.7	1776	388.76
57.75	1793	388.844
57.8	1722	388.494
57.85	1702	388.395
57.9	1675	388.262
57.95	1656	388.1685
58	1671	388.242
58.05	1644	388.109
58.1	1610	387.942
58.15	1648	388.129
58.2	1620	387.991
58.25	1648	388.129
58.3	1648	388.129
58.35	1685	388.312
58.4	1623	388.006
58.45	1622	388.001
58.5	1602	387.902
58.55	1648	388.129
58.6	1639	388.085
58.65	1624	388.011
58.7	1627	388.025
58.75	1645	388.114
58.8	1651	388.144
58.85	1628	388.03
58.9	1592	387.853
58.95	1638	388.08
59	1593	387.858
59.05	1626	388.021
59.1	1659	388.183
59.15	1641	388.095
59.2	1680	388.287
59.25	1739	388.578
59.3	1700	388.386
59.35	1687	388.321
59.4	1706	388.415
59.45	1659	388.183
59.5	1602	387.902
59.55	1651	388.144
59.6	1617	387.976
59.65	1649	388.134
59.7	1683	388.302
59.75	1683	388.302
59.8	1662	388.198
59.85	1655	388.164
59.9	1611	387.947
59.95	1681	388.292
60	1588	387.833
60.05	1657	388.173
60.1	1656	388.1685
60.15	1627	388.025
60.2	1608	387.932
60.25	1673	388.252
60.3	1627	388.025
60.35	1627	388.025
60.4	1662	388.198
60.45	1632	388.05
60.5	1710	388.435
60.55	1601	387.897
60.6	1643	388.104
60.65	1588	387.833
60.7	1663	388.203
60.75	1647	388.124
60.8	1667	388.223
60.85	1672	388.247
60.9	1738	388.573
60.95	1644	388.109
61	1681	388.292
61.05	1669	388.233
61.1	1704	388.405
61.15	1668	388.228
61.2	1667	388.223
61.25	1697	388.371
61.3	1671	388.242
61.35	1710	388.435
61.4	1737	388.568
61.45	1655	388.164
61.5	1724	388.504
61.55	1730	388.534
61.6	1794	388.849
61.65	1744	388.603
61.7	1800	388.879
61.75	1850	389.125
61.8	1746	388.612
61.85	1765	388.706
61.9	1813	388.943
61.95	1763	388.696
62	1731	388.538
62.05	1703	388.4
62.1	1689	388.331
62.15	1718	388.474
62.2	1784	388.8
62.25	1716	388.464
62.3	1701	388.39
62.35	1774	388.751
62.4	1748	388.622
62.45	1765	388.706
62.5	1790	388.829
62.55	1795	388.854
62.6	1827	389.012
62.65	1849	389.121
62.7	1918	389.461
62.75	1944	389.589
62.8	1925	389.495
62.85	2089	390.304
62.9	2235	391.025
62.95	2932	394.463
63	7569	417.335
63.05	10714	432.849
63.1	3906	399.267
63.15	3521	397.368
63.2	6714	413.118
63.25	4218	400.806
63.3	2393	391.804
63.35	2042	390.073
63.4	1982	389.777
63.45	1888	389.313
63.5	1892	389.333
63.55	1811	388.933
63.6	1779	388.775
63.65	1745	388.608
63.7	1754	388.652
63.75	1730	388.534
63.8	1654	388.159
63.85	1764	388.701
63.9	1759	388.677
63.95	1739	388.578
64	1718	388.474
64.05	1745	388.608
64.1	1747	388.617
64.15	1735	388.558
64.2	1795	388.854
64.25	1718	388.474
64.3	1753	388.647
64.35	1766	388.711
64.4	1738	388.573
64.45	1739	388.578
64.5	1681	388.292
64.55	1756	388.662
64.6	1736	388.563
64.65	1719	388.479
64.7	1680	388.287
64.75	1733	388.548
64.8	1760	388.681
64.85	1722	388.494
64.9	1721	388.489
64.95	1720	388.484
65	1689	388.331
65.05	1673	388.252
65.1	1708	388.425
65.15	1714	388.455
65.2	1690	388.336
65.25	1739	388.578
65.3	1733	388.548
65.35	1747	388.617
65.4	1721	388.489
65.45	1695	388.361
65.5	1748	388.622
65.55	1776	388.76
65.6	1748	388.622
65.65	1700	388.386
65.7	1730	388.534
65.75	1704	388.405
65.8	1718	388.474
65.85	1715	388.46
65.9	1720	388.484
65.95	1737	388.568
66	1733	388.548
66.05	1695	388.361
66.1	1789	388.825
66.15	1766	388.711
66.2	1807	388.913
66.25	1997	389.851
66.3	2040	390.063
66.35	1838	389.066
66.4	1788	388.82
66.45	1922	389.481
66.5	1782	388.79
66.55	1706	388.415
66.6	1731	388.538
66.65	1761	388.686
66.7	1749	388.627
66.75	1765	388.706
66.8	1775	388.755
66.85	1756	388.662
66.9	1743	388.598
66.95	1761	388.686
67	1784	388.8
67.05	1774	388.751
67.1	1763	388.696
67.15	1749	388.627
67.2	1762	388.691
67.25	1784	388.8
67.3	1748	388.622
67.35	1782	388.79
67.4	1721	388.489
67.45	1742	388.593
67.5	1760	388.681
67.55	1725	388.509
67.6	1749	388.627
67.65	1737	388.568
67.7	1709	388.43
67.75	1726	388.514
67.8	1723	388.499
67.85	1778	388.77
67.9	1733	388.548
67.95	1760	388.681
68	1767	388.716
68.05	1768	388.721
68.1	1754	388.652
68.15	1746	388.612
68.2	1778	388.77
68.25	1754	388.652
68.3	1766	388.711
68.35	1806	388.908
68.4	1751	388.637
68.45	1755	388.657
68.5	1814	388.948
68.55	1767	388.716
68.6	1734	388.553
68.65	1739	388.578
68.7	1723	388.499
68.75	1746	388.612
68.8	1774	388.751
68.85	1769	388.726
68.9	1771	388.736
68.95	1735	388.558
69	1790	388.829
69.05	1756	388.662
69.1	1766	388.711
69.15	1725	388.509
69.2	1787	388.815
69.25	1785	388.805
69.3	1720	388.484
69.35	1803	388.894
69.4	1793	388.844
69.45	1750	388.632
69.5	1728	388.524
69.55	1809	388.923
69.6	1774	388.751
69.65	1773	388.746
69.7	1794	388.849
69.75	1783	388.795
69.8	1805	388.903
69.85	1779	388.775
69.9	1741	388.588
69.95	1736	388.563
70	1834	389.047
70.05	1782	388.79
70.1	1783	388.795
70.15	1809	388.923
70.2	1764	388.701
70.25	1760	388.681
70.3	1844	389.096
70.35	1786	388.81
70.4	1838	389.066
70.45	1863	389.19
70.5	1778	388.77
70.55	1764	388.701
70.6	1769	388.726
70.65	1794	388.849
70.7	1795	388.854
70.75	1740	388.583
70.8	1779	388.775
70.85	1793	388.844
70.9	1759	388.677
70.95	1748	388.622
71	1773	388.746
71.05	1743	388.598
71.1	1778	388.77
71.15	1812	388.938
71.2	1778	388.77
71.25	1805	388.903
71.3	1854	389.145
71.35	1846	389.106
71.4	1824	388.997
71.45	1993	389.831
71.5	2828	393.95
71.55	2600	392.825
71.6	1943	389.584
71.65	1887	389.308
71.7	2267	391.182
71.75	2296	391.325
71.8	1985	389.791
71.85	1866	389.204
71.9	1846	389.106
71.95	1820	388.977
72	1815	388.953
72.05	1839	389.071
72.1	1798	388.869
72.15	1805	388.903
72.2	1808	388.918
72.25	1802	388.889
72.3	1812	388.938
72.35	1769	388.726
72.4	1815	388.953
72.45	1783	388.795
72.5	1830	389.027
72.55	1820	388.977
72.6	1829	389.022
72.65	1843	389.091
72.7	1824	388.997
72.75	1837	389.061
72.8	1914	389.441
72.85	1853	389.14
72.9	1883	389.288
72.95	1834	389.047
73	1835	389.051
73.05	1868	389.214
73.1	1847	389.111
73.15	1835	389.051
73.2	1818	388.968
73.25	1822	388.987
73.3	1810	388.928
73.35	1843	389.091
73.4	1793	388.844
73.45	1841	389.081
73.5	1858	389.165
73.55	1815	388.953
73.6	1809	388.923
73.65	1852	389.135
73.7	1814	388.948
73.75	1828	389.017
73.8	1814	388.948
73.85	1841	389.081
73.9	1864	389.194
73.95	1819	388.973
74	1807	388.913
74.05	1831	389.032
74.1	1823	388.992
74.15	1800	388.879
74.2	1853	389.14
74.25	1859	389.17
74.3	1844	389.096
74.35	1884	389.293
74.4	1910	389.421
74.45	1941	389.574
74.5	2228	390.99
74.55	3346	396.505
74.6	4398	401.694
74.65	2454	392.105
74.7	2055	390.137
74.75	2329	391.488
74.8	3250	396.031
74.85	2477	392.218
74.9	2012	389.925
74.95	1923	389.486
75	1916	389.451
75.05	1851	389.13
75.1	1885	389.298
75.15	1857	389.16
75.2	1824	388.997
75.25	1882	389.283
75.3	1862	389.185
75.35	1880	389.273
75.4	1867	389.209
75.45	1901	389.377
75.5	1932	389.53
75.55	2295	391.32
75.6	2940	394.502
75.65	2221	390.955
75.7	1898	389.362
75.75	1980	389.767
75.8	2300	391.345
75.85	2201	390.857
75.9	1931	389.525
75.95	1868	389.214
76	1838	389.066
76.05	1806	388.908
76.1	1860	389.175
76.15	1875	389.249
76.2	1828	389.017
76.25	1830	389.027
76.3	1824	388.997
76.35	1799	388.874
76.4	1824	388.997
76.45	1828	389.017
76.5	1873	389.239
76.55	1862	389.185
76.6	1772	388.741
76.65	1809	388.923
76.7	1768	388.721
76.75	1805	388.903
76.8	1815	388.953
76.85	1832	389.037
76.9	1823	388.992
76.95	1806	388.908
77	1852	389.135
77.05	1861	389.18
77.1	1809	388.923
77.15	1851	389.13
77.2	1870	389.224
77.25	1881	389.278
77.3	1910	389.421
77.35	1848	389.116
77.4	1866	389.204
77.45	1886	389.303
77.5	1860	389.175
77.55	1857	389.16
77.6	1887	389.308
77.65	1853	389.14
77.7	1821	388.982
77.75	1789	388.825
77.8	1846	389.106
77.85	1838	389.066
77.9	1866	389.204
77.95	1843	389.091
78	1833	389.042
78.05	1852	389.135
78.1	1803	388.894
78.15	1827	389.012
78.2	1850	389.125
78.25	1847	389.111
78.3	1888	389.313
78.35	1860	389.175
78.4	1833	389.042
78.45	1857	389.16
78.5	1847	389.111
78.55	1821	388.982
78.6	1859	389.17
78.65	1816	388.958
78.7	1893	389.338
78.75	1873	389.239
78.8	1880	389.273
78.85	1822	388.987
78.9	1844	389.096
78.95	1820	388.977
79	1871	389.229
79.05	1847	389.111
79.1	1813	388.943
79.15	1860	389.175
79.2	1844	389.096
79.25	1943	389.584
79.3	1864	389.194
79.35	1922	389.481
79.4	1942	389.579
79.45	1890	389.323
79.5	1887	389.308
79.55	2194	390.822
79.6	2997	394.783
79.65	2235	391.025
79.7	1947	389.604
79.75	1972	389.727
79.8	2193	390.817
79.85	2399	391.833
79.9	2027	389.999
79.95	1910	389.421
80	1945	389.594