File: 学部3年/前期/学生実験/B2/XRD/Sample2_NH3_2θ_θ.TXT
Sample	äwê∂é¿å±3TM_NH3
Comments
Filename	C:\Users\User1\Desktop\DATA\äwê∂é¿å±3TM\äwê∂é¿å±3TM_NH3_2É∆_É∆.raw
Goniometer	MiniFlex 300/600 +
Attachment	âÒì]ééóøë‰
Monochromater	None
X	0
Y	0
Z	0
ScanningMode	2Theta/Theta
ScanningType	Continuos Scanning
X-Ray	40kV/15mA
IHS	5.0mm
DS	1.250deg
SS	13.0mm(Open)
RS	13.0mm(Open)
K-beta(x1)
Start	20
Stop	80
Step	0.01
Speed	1
Offset	0	10539
20	858	268.141
20.05	853	268.094
20.1	818	267.762
20.15	821	267.79
20.2	802	267.61
20.25	830	267.876
20.3	852	268.084
20.35	817	267.752
20.4	822	267.8
20.45	833	267.904
20.5	831	267.885
20.55	832	267.894
20.6	848	268.046
20.65	853	268.094
20.7	843	267.999
20.75	814	267.724
20.8	821	267.79
20.85	800	267.591
20.9	828	267.857
20.95	812	267.705
21	830	267.876
21.05	825	267.828
21.1	836	267.932
21.15	844	268.008
21.2	861	268.17
21.25	814	267.724
21.3	817	267.752
21.35	872	268.274
21.4	843	267.999
21.45	847	268.037
21.5	835	267.923
21.55	818	267.762
21.6	818	267.762
21.65	821	267.79
21.7	867	268.227
21.75	886	268.407
21.8	892	268.464
21.85	861	268.17
21.9	833	267.904
21.95	847	268.037
22	837	267.942
22.05	831	267.885
22.1	847	268.037
22.15	850	268.065
22.2	840	267.97
22.25	861	268.17
22.3	835	267.923
22.35	859	268.151
22.4	828	267.857
22.45	843	267.999
22.5	833	267.904
22.55	847	268.037
22.6	838	267.951
22.65	842	267.989
22.7	826	267.838
22.75	851	268.075
22.8	853	268.094
22.85	853	268.094
22.9	802	267.61
22.95	838	267.951
23	859	268.151
23.05	828	267.857
23.1	844	268.008
23.15	859	268.151
23.2	833	267.904
23.25	851	268.075
23.3	866	268.217
23.35	859	268.151
23.4	852	268.084
23.45	876	268.312
23.5	855	268.113
23.55	853	268.094
23.6	820	267.781
23.65	833	267.904
23.7	851	268.075
23.75	855	268.113
23.8	835	267.923
23.85	846	268.027
23.9	865	268.208
23.95	876	268.312
24	873	268.284
24.05	1012	269.602
24.1	1588	275.068
24.15	3178	290.155
24.2	2243	281.283
24.25	1239	271.756
24.3	933	268.853
24.35	856	268.122
24.4	871	268.265
24.45	866	268.217
24.5	827	267.847
24.55	871	268.265
24.6	834	267.913
24.65	849	268.056
24.7	846	268.027
24.75	860	268.16
24.8	878	268.331
24.85	862	268.179
24.9	827	267.847
24.95	836	267.932
25	843	267.999
25.05	860	268.16
25.1	846	268.027
25.15	850	268.065
25.2	828	267.857
25.25	843	267.999
25.3	854	268.103
25.35	842	267.989
25.4	826	267.838
25.45	827	267.847
25.5	812	267.705
25.55	883	268.378
25.6	850	268.065
25.65	807	267.657
25.7	860	268.16
25.75	825	267.828
25.8	854	268.103
25.85	853	268.094
25.9	822	267.8
25.95	859	268.151
26	799	267.581
26.05	863	268.189
26.1	825	267.828
26.15	831	267.885
26.2	844	268.008
26.25	880	268.35
26.3	856	268.122
26.35	854	268.103
26.4	887	268.416
26.45	832	267.894
26.5	839	267.961
26.55	874	268.293
26.6	845	268.018
26.65	814	267.724
26.7	852	268.084
26.75	862	268.179
26.8	817	267.752
26.85	842	267.989
26.9	856	268.122
26.95	864	268.198
27	823	267.809
27.05	810	267.686
27.1	858	268.141
27.15	851	268.075
27.2	837	267.942
27.25	892	268.464
27.3	845	268.018
27.35	898	268.521
27.4	842	267.989
27.45	849	268.056
27.5	855	268.113
27.55	833	267.904
27.6	852	268.084
27.65	836	267.932
27.7	851	268.075
27.75	840	267.97
27.8	867	268.227
27.85	848	268.046
27.9	854	268.103
27.95	837	267.942
28	845	268.018
28.05	890	268.445
28.1	820	267.781
28.15	828	267.857
28.2	836	267.932
28.25	836	267.932
28.3	870	268.255
28.35	859	268.151
28.4	864	268.198
28.45	840	267.97
28.5	887	268.416
28.55	848	268.046
28.6	866	268.217
28.65	861	268.17
28.7	866	268.217
28.75	864	268.198
28.8	908	268.616
28.85	833	267.904
28.9	903	268.568
28.95	870	268.255
29	854	268.103
29.05	867	268.227
29.1	877	268.321
29.15	866	268.217
29.2	882	268.369
29.25	855	268.113
29.3	873	268.284
29.35	879	268.34
29.4	876	268.312
29.45	877	268.321
29.5	892	268.464
29.55	873	268.284
29.6	900	268.54
29.65	886	268.407
29.7	884	268.388
29.75	840	267.97
29.8	863	268.189
29.85	929	268.815
29.9	969	269.194
29.95	870	268.255
30	869	268.246
30.05	859	268.151
30.1	877	268.321
30.15	887	268.416
30.2	890	268.445
30.25	1110	270.532
30.3	1508	274.309
30.35	1255	271.908
30.4	1072	270.172
30.45	940	268.919
30.5	907	268.606
30.55	858	268.141
30.6	866	268.217
30.65	871	268.265
30.7	880	268.35
30.75	880	268.35
30.8	879	268.34
30.85	890	268.445
30.9	859	268.151
30.95	870	268.255
31	883	268.378
31.05	878	268.331
31.1	853	268.094
31.15	912	268.654
31.2	887	268.416
31.25	873	268.284
31.3	876	268.312
31.35	884	268.388
31.4	874	268.293
31.45	857	268.132
31.5	884	268.388
31.55	878	268.331
31.6	855	268.113
31.65	898	268.521
31.7	849	268.056
31.75	872	268.274
31.8	848	268.046
31.85	883	268.378
31.9	846	268.027
31.95	884	268.388
32	875	268.302
32.05	927	268.796
32.1	974	269.242
32.15	925	268.777
32.2	949	269.005
32.25	913	268.663
32.3	931	268.834
32.35	946	268.976
32.4	946	268.976
32.45	914	268.673
32.5	915	268.682
32.55	871	268.265
32.6	942	268.938
32.65	949	269.005
32.7	954	269.052
32.75	959	269.1
32.8	952	269.033
32.85	991	269.403
32.9	1024	269.716
32.95	1028	269.754
33	1186	271.253
33.05	1316	272.487
33.1	2793	286.502
33.15	9952	354.43
33.2	5815	315.176
33.25	5683	313.924
33.3	1926	278.275
33.35	1146	270.874
33.4	1068	270.134
33.45	1010	269.583
33.5	978	269.28
33.55	987	269.365
33.6	1000	269.489
33.65	926	268.786
33.7	913	268.663
33.75	921	268.739
33.8	916	268.692
33.85	898	268.521
33.9	940	268.919
33.95	914	268.673
34	933	268.853
34.05	925	268.777
34.1	920	268.729
34.15	934	268.862
34.2	931	268.834
34.25	917	268.701
34.3	949	269.005
34.35	910	268.635
34.4	909	268.625
34.45	934	268.862
34.5	909	268.625
34.55	957	269.081
34.6	914	268.673
34.65	946	268.976
34.7	939	268.91
34.75	918	268.711
34.8	958	269.09
34.85	943	268.948
34.9	923	268.758
34.95	975	269.251
35	961	269.119
35.05	959	269.1
35.1	945	268.967
35.15	1000	269.489
35.2	1028	269.754
35.25	1024	269.716
35.3	1045	269.916
35.35	1024	269.716
35.4	1044	269.906
35.45	1127	270.694
35.5	1263	271.984
35.55	2042	279.376
35.6	6884	325.319
35.65	7274	329.02
35.7	6589	322.52
35.75	3904	297.043
35.8	2161	280.505
35.85	1288	272.221
35.9	1119	270.618
35.95	1039	269.859
36	1050	269.963
36.05	1013	269.612
36.1	1014	269.621
36.15	961	269.119
36.2	959	269.1
36.25	922	268.748
36.3	983	269.327
36.35	956	269.071
36.4	930	268.824
36.45	994	269.432
36.5	976	269.261
36.55	941	268.929
36.6	947	268.986
36.65	961	269.119
36.7	958	269.09
36.75	962	269.128
36.8	978	269.28
36.85	980	269.299
36.9	975	269.251
36.95	951	269.024
37	928	268.805
37.05	955	269.062
37.1	964	269.147
37.15	959	269.1
37.2	919	268.72
37.25	978	269.28
37.3	1069	270.143
37.35	1047	269.935
37.4	1068	270.134
37.45	1013	269.612
37.5	998	269.47
37.55	1011	269.593
37.6	977	269.27
37.65	960	269.109
37.7	983	269.327
37.75	982	269.318
37.8	960	269.109
37.85	975	269.251
37.9	980	269.299
37.95	984	269.337
38	973	269.232
38.05	975	269.251
38.1	951	269.024
38.15	979	269.289
38.2	993	269.422
38.25	987	269.365
38.3	964	269.147
38.35	975	269.251
38.4	999	269.479
38.45	982	269.318
38.5	1009	269.574
38.55	996	269.451
38.6	994	269.432
38.65	1007	269.555
38.7	973	269.232
38.75	953	269.043
38.8	928	268.805
38.85	972	269.223
38.9	964	269.147
38.95	952	269.033
39	970	269.204
39.05	979	269.289
39.1	988	269.375
39.15	980	269.299
39.2	985	269.346
39.25	1037	269.84
39.3	1185	271.244
39.35	1049	269.954
39.4	1056	270.02
39.45	1006	269.545
39.5	988	269.375
39.55	986	269.356
39.6	977	269.27
39.65	966	269.166
39.7	983	269.327
39.75	979	269.289
39.8	946	268.976
39.85	996	269.451
39.9	993	269.422
39.95	962	269.128
40	1006	269.545
40.05	985	269.346
40.1	1017	269.65
40.15	971	269.213
40.2	975	269.251
40.25	993	269.422
40.3	1002	269.508
40.35	989	269.384
40.4	999	269.479
40.45	1028	269.754
40.5	1009	269.574
40.55	1012	269.602
40.6	1052	269.982
40.65	1077	270.219
40.7	1107	270.504
40.75	1133	270.751
40.8	1594	275.125
40.85	3327	291.568
40.9	2043	279.385
40.95	2237	281.226
41	1596	275.144
41.05	1134	270.76
41.1	1002	269.508
41.15	1031	269.783
41.2	1069	270.143
41.25	1072	270.172
41.3	1072	270.172
41.35	1032	269.792
41.4	978	269.28
41.45	1013	269.612
41.5	1011	269.593
41.55	1007	269.555
41.6	1001	269.498
41.65	1017	269.65
41.7	1009	269.574
41.75	1046	269.925
41.8	1042	269.887
41.85	1041	269.878
41.9	1031	269.783
41.95	1035	269.821
42	981	269.308
42.05	990	269.394
42.1	1022	269.697
42.15	1020	269.678
42.2	1000	269.489
42.25	976	269.261
42.3	1070	270.153
42.35	1003	269.517
42.4	1057	270.029
42.45	1002	269.508
42.5	1063	270.086
42.55	1008	269.564
42.6	1033	269.802
42.65	1045	269.916
42.7	1050	269.963
42.75	1026	269.735
42.8	1027	269.745
42.85	1060	270.058
42.9	1012	269.602
42.95	1016	269.64
43	1021	269.688
43.05	1042	269.887
43.1	1010	269.583
43.15	1035	269.821
43.2	1019	269.669
43.25	1097	270.409
43.3	1225	271.623
43.35	1538	274.593
43.4	1491	274.147
43.45	1374	273.037
43.5	1498	274.214
43.55	1201	271.396
43.6	1179	271.187
43.65	1093	270.371
43.7	1047	269.935
43.75	1026	269.735
43.8	1043	269.897
43.85	1026	269.735
43.9	996	269.451
43.95	1057	270.029
44	995	269.441
44.05	1006	269.545
44.1	1041	269.878
44.15	1049	269.954
44.2	1018	269.659
44.25	1011	269.593
44.3	1057	270.029
44.35	1044	269.906
44.4	1094	270.38
44.45	1073	270.181
44.5	1035	269.821
44.55	997	269.46
44.6	1041	269.878
44.65	1037	269.84
44.7	1053	269.991
44.75	1060	270.058
44.8	1041	269.878
44.85	1065	270.105
44.9	1025	269.726
44.95	1059	270.048
45	1088	270.324
45.05	1040	269.868
45.1	1048	269.944
45.15	1052	269.982
45.2	1076	270.21
45.25	1036	269.83
45.3	1086	270.305
45.35	1066	270.115
45.4	1057	270.029
45.45	1051	269.972
45.5	1026	269.735
45.55	1047	269.935
45.6	1033	269.802
45.65	1043	269.897
45.7	1040	269.868
45.75	1020	269.678
45.8	1071	270.162
45.85	1079	270.238
45.9	1077	270.219
45.95	1076	270.21
46	1059	270.048
46.05	1026	269.735
46.1	1041	269.878
46.15	1061	270.067
46.2	1058	270.039
46.25	1027	269.745
46.3	1037	269.84
46.35	1083	270.276
46.4	1035	269.821
46.45	1101	270.447
46.5	1083	270.276
46.55	1086	270.305
46.6	1071	270.162
46.65	1044	269.906
46.7	1057	270.029
46.75	1058	270.039
46.8	1071	270.162
46.85	1026	269.735
46.9	1047	269.935
46.95	1131	270.732
47	1078	270.229
47.05	1067	270.124
47.1	1058	270.039
47.15	1082	270.267
47.2	1075	270.2
47.25	1078	270.229
47.3	1036	269.83
47.35	1076	270.21
47.4	1074	270.191
47.45	1091	270.352
47.5	1135	270.77
47.55	1096	270.399
47.6	1063	270.086
47.65	1058	270.039
47.7	1083	270.276
47.75	1116	270.589
47.8	1108	270.513
47.85	1103	270.466
47.9	1092	270.362
47.95	1109	270.523
48	1074	270.191
48.05	1079	270.238
48.1	1093	270.371
48.15	1104	270.475
48.2	1085	270.295
48.25	1114	270.57
48.3	1114	270.57
48.35	1119	270.618
48.4	1108	270.513
48.45	1123	270.656
48.5	1175	271.149
48.55	1118	270.608
48.6	1133	270.751
48.65	1116	270.589
48.7	1101	270.447
48.75	1112	270.551
48.8	1089	270.333
48.85	1132	270.741
48.9	1091	270.352
48.95	1101	270.447
49	1161	271.016
49.05	1134	270.76
49.1	1175	271.149
49.15	1180	271.197
49.2	1153	270.94
49.25	1239	271.756
49.3	1269	272.041
49.35	1385	273.142
49.4	2437	283.124
49.45	5395	311.191
49.5	3332	291.616
49.55	2571	284.395
49.6	3343	291.72
49.65	1679	275.931
49.7	1276	272.107
49.75	1207	271.453
49.8	1153	270.94
49.85	1126	270.684
49.9	1145	270.864
49.95	1129	270.713
50	1127	270.694
50.05	1104	270.475
50.1	1154	270.95
50.15	1157	270.978
50.2	1113	270.561
50.25	1110	270.532
50.3	1119	270.618
50.35	1148	270.893
50.4	1079	270.238
50.45	1143	270.845
50.5	1147	270.883
50.55	1164	271.045
50.6	1107	270.504
50.65	1127	270.694
50.7	1129	270.713
50.75	1108	270.513
50.8	1130	270.722
50.85	1100	270.437
50.9	1118	270.608
50.95	1100	270.437
51	1116	270.589
51.05	1146	270.874
51.1	1135	270.77
51.15	1103	270.466
51.2	1189	271.282
51.25	1111	270.542
51.3	1138	270.798
51.35	1145	270.864
51.4	1158	270.988
51.45	1171	271.111
51.5	1131	270.732
51.55	1153	270.94
51.6	1141	270.826
51.65	1162	271.026
51.7	1126	270.684
51.75	1159	270.997
51.8	1126	270.684
51.85	1144	270.855
51.9	1162	271.026
51.95	1114	270.57
52	1129	270.713
52.05	1121	270.637
52.1	1124	270.665
52.15	1129	270.713
52.2	1156	270.969
52.25	1140	270.817
52.3	1163	271.035
52.35	1153	270.94
52.4	1122	270.646
52.45	1165	271.054
52.5	1154	270.95
52.55	1169	271.092
52.6	1193	271.32
52.65	1178	271.178
52.7	1197	271.358
52.75	1195	271.339
52.8	1194	271.329
52.85	1161	271.016
52.9	1205	271.434
52.95	1177	271.168
53	1160	271.007
53.05	1200	271.386
53.1	1201	271.396
53.15	1165	271.054
53.2	1192	271.31
53.25	1157	270.978
53.3	1215	271.529
53.35	1162	271.026
53.4	1209	271.472
53.45	1183	271.225
53.5	1181	271.206
53.55	1227	271.642
53.6	1247	271.832
53.65	1222	271.595
53.7	1254	271.899
53.75	1355	272.857
53.8	1478	274.024
53.85	1564	274.84
53.9	1427	273.54
53.95	1620	275.371
54	2371	282.497
54.05	6132	318.184
54.1	5435	311.57
54.15	2587	284.547
54.2	3910	297.1
54.25	3114	289.547
54.3	1683	275.969
54.35	1374	273.037
54.4	1297	272.307
54.45	1282	272.164
54.5	1261	271.965
54.55	1244	271.804
54.6	1231	271.68
54.65	1232	271.69
54.7	1192	271.31
54.75	1205	271.434
54.8	1243	271.794
54.85	1199	271.377
54.9	1232	271.69
54.95	1218	271.557
55	1218	271.557
55.05	1202	271.405
55.1	1238	271.747
55.15	1210	271.481
55.2	1216	271.538
55.25	1211	271.491
55.3	1205	271.434
55.35	1207	271.453
55.4	1259	271.946
55.45	1209	271.472
55.5	1247	271.832
55.55	1217	271.548
55.6	1239	271.756
55.65	1201	271.396
55.7	1230	271.671
55.75	1237	271.737
55.8	1210	271.481
55.85	1260	271.956
55.9	1235	271.718
55.95	1208	271.462
56	1273	272.079
56.05	1236	271.728
56.1	1258	271.937
56.15	1258	271.937
56.2	1254	271.899
56.25	1222	271.595
56.3	1250	271.861
56.35	1203	271.415
56.4	1204	271.424
56.45	1239	271.756
56.5	1217	271.548
56.55	1248	271.842
56.6	1181	271.206
56.65	1205	271.434
56.7	1219	271.567
56.75	1234	271.709
56.8	1246	271.823
56.85	1249	271.851
56.9	1243	271.794
56.95	1236	271.728
57	1296	272.297
57.05	1276	272.107
57.1	1265	272.003
57.15	1322	272.544
57.2	1318	272.506
57.25	1377	273.066
57.3	1559	274.793
57.35	2080	279.736
57.4	2238	281.235
57.45	1945	278.455
57.5	1812	277.193
57.55	1994	278.92
57.6	2562	284.31
57.65	2044	279.395
57.7	1613	275.305
57.75	1810	277.174
57.8	1618	275.353
57.85	1360	272.904
57.9	1320	272.525
57.95	1243	271.794
58	1249	271.851
58.05	1239	271.756
58.1	1253	271.889
58.15	1277	272.117
58.2	1254	271.899
58.25	1247	271.832
58.3	1288	272.221
58.35	1262	271.975
58.4	1216	271.538
58.45	1284	272.183
58.5	1212	271.5
58.55	1216	271.538
58.6	1181	271.206
58.65	1273	272.079
58.7	1262	271.975
58.75	1232	271.69
58.8	1238	271.747
58.85	1253	271.889
58.9	1267	272.022
58.95	1282	272.164
59	1263	271.984
59.05	1225	271.623
59.1	1234	271.709
59.15	1183	271.225
59.2	1269	272.041
59.25	1278	272.126
59.3	1263	271.984
59.35	1229	271.661
59.4	1254	271.899
59.45	1231	271.68
59.5	1264	271.994
59.55	1228	271.652
59.6	1225	271.623
59.65	1251	271.87
59.7	1247	271.832
59.75	1282	272.164
59.8	1243	271.794
59.85	1230	271.671
59.9	1250	271.861
59.95	1251	271.87
60	1277	272.117
60.05	1249	271.851
60.1	1239	271.756
60.15	1222	271.595
60.2	1261	271.965
60.25	1287	272.212
60.3	1286	272.202
60.35	1206	271.443
60.4	1277	272.117
60.45	1258	271.937
60.5	1291	272.25
60.55	1288	272.221
60.6	1273	272.079
60.65	1223	271.605
60.7	1220	271.576
60.75	1282	272.164
60.8	1257	271.927
60.85	1273	272.079
60.9	1244	271.804
60.95	1266	272.013
61	1272	272.069
61.05	1317	272.496
61.1	1327	272.591
61.15	1290	272.24
61.2	1264	271.994
61.25	1300	272.335
61.3	1280	272.145
61.35	1284	272.183
61.4	1292	272.259
61.45	1293	272.269
61.5	1278	272.126
61.55	1260	271.956
61.6	1284	272.183
61.65	1336	272.677
61.7	1303	272.364
61.75	1293	272.269
61.8	1296	272.297
61.85	1292	272.259
61.9	1328	272.601
61.95	1306	272.392
62	1333	272.648
62.05	1385	273.142
62.1	1389	273.18
62.15	1405	273.331
62.2	1406	273.341
62.25	1456	273.815
62.3	1559	274.793
62.35	2251	281.359
62.4	4695	304.549
62.45	4638	304.008
62.5	2263	281.473
62.55	2451	283.256
62.6	3373	292.005
62.65	2127	280.182
62.7	1592	275.106
62.75	1472	273.967
62.8	1446	273.72
62.85	1442	273.683
62.9	1513	274.356
62.95	1923	278.247
63	2489	283.617
63.05	2123	280.144
63.1	1777	276.861
63.15	1868	277.725
63.2	1886	277.895
63.25	1622	275.39
63.3	1475	273.996
63.35	1360	272.904
63.4	1396	273.246
63.45	1352	272.829
63.5	1343	272.743
63.55	1360	272.904
63.6	1332	272.639
63.65	1458	273.834
63.7	1399	273.275
63.75	1424	273.512
63.8	1445	273.711
63.85	1543	274.641
63.9	2141	280.315
63.95	4094	298.846
64	4821	305.744
64.05	2385	282.63
64.1	2263	281.473
64.15	3286	291.179
64.2	2484	283.57
64.25	1616	275.334
64.3	1448	273.739
64.35	1426	273.531
64.4	1379	273.085
64.45	1349	272.8
64.5	1328	272.601
64.55	1337	272.686
64.6	1355	272.857
64.65	1338	272.696
64.7	1362	272.923
64.75	1376	273.056
64.8	1302	272.354
64.85	1342	272.734
64.9	1328	272.601
64.95	1335	272.667
65	1310	272.43
65.05	1328	272.601
65.1	1326	272.582
65.15	1316	272.487
65.2	1317	272.496
65.25	1334	272.658
65.3	1336	272.677
65.35	1306	272.392
65.4	1303	272.364
65.45	1312	272.449
65.5	1327	272.591
65.55	1296	272.297
65.6	1324	272.563
65.65	1350	272.81
65.7	1321	272.534
65.75	1335	272.667
65.8	1311	272.44
65.85	1300	272.335
65.9	1312	272.449
65.95	1368	272.98
66	1347	272.781
66.05	1361	272.914
66.1	1344	272.753
66.15	1354	272.848
66.2	1351	272.819
66.25	1419	273.464
66.3	1348	272.791
66.35	1343	272.743
66.4	1345	272.762
66.45	1318	272.506
66.5	1343	272.743
66.55	1346	272.772
66.6	1336	272.677
66.65	1357	272.876
66.7	1330	272.62
66.75	1348	272.791
66.8	1348	272.791
66.85	1355	272.857
66.9	1325	272.572
66.95	1307	272.402
67	1339	272.705
67.05	1335	272.667
67.1	1328	272.601
67.15	1317	272.496
67.2	1352	272.829
67.25	1331	272.629
67.3	1325	272.572
67.35	1275	272.098
67.4	1342	272.734
67.45	1319	272.515
67.5	1349	272.8
67.55	1367	272.971
67.6	1318	272.506
67.65	1371	273.009
67.7	1324	272.563
67.75	1318	272.506
67.8	1303	272.364
67.85	1338	272.696
67.9	1323	272.553
67.95	1346	272.772
68	1313	272.458
68.05	1353	272.838
68.1	1336	272.677
68.15	1343	272.743
68.2	1332	272.639
68.25	1343	272.743
68.3	1386	273.151
68.35	1371	273.009
68.4	1335	272.667
68.45	1338	272.696
68.5	1340	272.715
68.55	1360	272.904
68.6	1359	272.895
68.65	1348	272.791
68.7	1358	272.885
68.75	1383	273.123
68.8	1334	272.658
68.85	1350	272.81
68.9	1366	272.961
68.95	1364	272.942
69	1361	272.914
69.05	1371	273.009
69.1	1381	273.104
69.15	1354	272.848
69.2	1341	272.724
69.25	1356	272.866
69.3	1354	272.848
69.35	1396	273.246
69.4	1321	272.534
69.45	1396	273.246
69.5	1406	273.341
69.55	1535	274.565
69.6	1819	277.26
69.65	1551	274.717
69.7	1414	273.417
69.75	1474	273.986
69.8	1563	274.831
69.85	1437	273.635
69.9	1382	273.113
69.95	1365	272.952
70	1338	272.696
70.05	1359	272.895
70.1	1338	272.696
70.15	1341	272.724
70.2	1354	272.848
70.25	1322	272.544
70.3	1353	272.838
70.35	1390	273.189
70.4	1354	272.848
70.45	1380	273.094
70.5	1371	273.009
70.55	1379	273.085
70.6	1362	272.923
70.65	1369	272.99
70.7	1347	272.781
70.75	1354	272.848
70.8	1385	273.142
70.85	1346	272.772
70.9	1348	272.791
70.95	1297	272.307
71	1326	272.582
71.05	1410	273.379
71.1	1369	272.99
71.15	1409	273.369
71.2	1370	272.999
71.25	1320	272.525
71.3	1322	272.544
71.35	1413	273.407
71.4	1410	273.379
71.45	1455	273.806
71.5	1471	273.958
71.55	1441	273.673
71.6	1405	273.331
71.65	1432	273.588
71.7	1462	273.872
71.75	1449	273.749
71.8	1473	273.977
71.85	1502	274.252
71.9	1874	277.782
71.95	2551	284.205
72	2360	282.393
72.05	1804	277.117
72.1	1689	276.026
72.15	2003	279.006
72.2	1892	277.952
72.25	1810	277.174
72.3	1706	276.187
72.35	1527	274.489
72.4	1443	273.692
72.45	1539	274.603
72.5	1517	274.394
72.55	1460	273.853
72.6	1402	273.303
72.65	1401	273.293
72.7	1410	273.379
72.75	1387	273.161
72.8	1333	272.648
72.85	1373	273.028
72.9	1373	273.028
72.95	1381	273.104
73	1334	272.658
73.05	1360	272.904
73.1	1355	272.857
73.15	1355	272.857
73.2	1394	273.227
73.25	1351	272.819
73.3	1364	272.942
73.35	1377	273.066
73.4	1382	273.113
73.45	1395	273.237
73.5	1434	273.607
73.55	1436	273.626
73.6	1361	272.914
73.65	1409	273.369
73.7	1349	272.8
73.75	1371	273.009
73.8	1429	273.559
73.85	1329	272.61
73.9	1397	273.256
73.95	1345	272.762
74	1375	273.047
74.05	1412	273.398
74.1	1412	273.398
74.15	1390	273.189
74.2	1405	273.331
74.25	1375	273.047
74.3	1416	273.436
74.35	1404	273.322
74.4	1386	273.151
74.45	1377	273.066
74.5	1467	273.92
74.55	1638	275.542
74.6	1601	275.191
74.65	1509	274.318
74.7	1437	273.635
74.75	1504	274.271
74.8	1496	274.195
74.85	1417	273.445
74.9	1400	273.284
74.95	1414	273.417
75	1388	273.17
75.05	1429	273.559
75.1	1410	273.379
75.15	1418	273.455
75.2	1426	273.531
75.25	1451	273.768
75.3	1478	274.024
75.35	1598	275.163
75.4	2061	279.556
75.45	2269	281.53
75.5	1732	276.434
75.55	1614	275.315
75.6	1728	276.396
75.65	1917	278.19
75.7	1672	275.865
75.75	1511	274.337
75.8	1465	273.901
75.85	1409	273.369
75.9	1454	273.796
75.95	1396	273.246
76	1402	273.303
76.05	1385	273.142
76.1	1444	273.701
76.15	1376	273.056
76.2	1350	272.81
76.25	1387	273.161
76.3	1418	273.455
76.35	1354	272.848
76.4	1363	272.933
76.45	1431	273.578
76.5	1386	273.151
76.55	1380	273.094
76.6	1413	273.407
76.65	1402	273.303
76.7	1358	272.885
76.75	1400	273.284
76.8	1330	272.62
76.85	1378	273.075
76.9	1406	273.341
76.95	1389	273.18
77	1404	273.322
77.05	1349	272.8
77.1	1373	273.028
77.15	1365	272.952
77.2	1448	273.739
77.25	1376	273.056
77.3	1419	273.464
77.35	1359	272.895
77.4	1396	273.246
77.45	1369	272.99
77.5	1401	273.293
77.55	1400	273.284
77.6	1451	273.768
77.65	1468	273.929
77.7	1597	275.153
77.75	1700	276.131
77.8	1543	274.641
77.85	1475	273.996
77.9	1395	273.237
77.95	1523	274.451
78	1527	274.489
78.05	1417	273.445
78.1	1395	273.237
78.15	1406	273.341
78.2	1415	273.426
78.25	1438	273.645
78.3	1382	273.113
78.35	1403	273.312
78.4	1389	273.18
78.45	1393	273.218
78.5	1382	273.113
78.55	1353	272.838
78.6	1405	273.331
78.65	1418	273.455
78.7	1477	274.015
78.75	1542	274.631
78.8	1495	274.185
78.85	1365	272.952
78.9	1462	273.872
78.95	1441	273.673
79	1488	274.119
79.05	1432	273.588
79.1	1427	273.54
79.15	1372	273.018
79.2	1400	273.284
79.25	1352	272.829
79.3	1420	273.474
79.35	1388	273.17
79.4	1468	273.929
79.45	1423	273.502
79.5	1415	273.426
79.55	1414	273.417
79.6	1460	273.853
79.65	1490	274.138
79.7	1463	273.882
79.75	1442	273.683
79.8	1436	273.626
79.85	1442	273.683
79.9	1408	273.36
79.95	1427	273.54
80	1358	272.885